UnixTime(ms),Ax,Ay,Az,Gx,Gy,Gz,QuatW,QuatX,QuatY,QuatZ
1756066383028,0.00000000,0.00000000,0.00000000,0.00000000,0.00000000,0.00000000,0.99381365,-0.08388442,0.01759348,0.07062786
1756066383055,-0.13312211,-0.00617714,0.09305623,-0.00399029,0.01957001,-0.00720686,0.99381121,-0.08394029,0.01786746,0.07052696
1756066383064,-0.77557686,-0.07876610,0.37657769,0.04702974,0.05285963,-0.04533358,0.99383891,-0.08373100,0.01810269,0.07032523
1756066383074,0.57110791,0.14544660,-0.38036279,0.02724461,0.03365268,0.03437110,0.99383516,-0.08359614,0.01826927,0.07049536
1756066383108,0.01177712,0.02479889,-0.02024711,0.03077091,0.01697746,0.02595705,0.99384218,-0.08308073,0.01855364,0.07093014
1756066383127,0.38939646,-0.11106514,-0.02060725,-0.00763163,-0.00209929,0.01402679,0.99382680,-0.08315399,0.01853349,0.07106480
1756066383138,-0.40532237,-0.13899455,-0.16028463,-0.01548847,-0.00084286,-0.02079527,0.99382796,-0.08324150,0.01852873,0.07094731
1756066383149,-0.04660292,0.00885257,0.03603472,-0.00921059,0.00067117,-0.01579939,0.99382988,-0.08329308,0.01853249,0.07085883
1756066383160,0.02759726,0.18869090,-0.02248858,0.00247726,0.00830058,0.00773748,0.99382711,-0.08327933,0.01857855,0.07090177
1756066383172,0.02527670,0.07171811,-0.08780329,0.02358333,-0.00244610,0.02917338,0.99382676,-0.08314845,0.01856498,0.07106369
1756066383183,-0.05780988,-0.04112000,-0.01596423,0.05864326,0.01254387,-0.01001851,0.99385661,-0.08282298,0.01863460,0.07100808
1756066383194,0.06458258,0.03229129,0.06361505,0.00243021,0.02333066,0.01201745,0.99385053,-0.08280949,0.01876408,0.07107478
1756066383205,0.11404752,0.20124610,0.04426447,0.00828400,-0.00251437,0.01208473,0.99384982,-0.08276351,0.01875013,0.07114185
1756066383216,0.06072620,-0.10935737,0.01581683,0.00164474,0.00140931,0.01373749,0.99384484,-0.08275414,0.01875816,0.07122015
1756066383227,-0.06732604,-0.13428607,0.01520040,-0.00928885,0.00771045,0.00343572,0.99383837,-0.08280569,0.01880095,0.07123922
1756066383239,-0.08139840,-0.09512039,0.07117944,-0.01059000,0.00782269,-0.00929838,0.99383632,-0.08286552,0.01884515,0.07118669
1756066383250,-0.00929213,0.03636369,0.05307498,-0.00584259,0.00636563,-0.00447933,0.99383472,-0.08289795,0.01888048,0.07116183
1756066383261,-0.01959247,0.01378729,0.00266071,0.00453605,0.01095906,0.00366745,0.99383421,-0.08287277,0.01894130,0.07118218
1756066383272,-0.02333443,0.00783165,-0.08773636,0.01406545,0.01211056,-0.00525783,0.99384158,-0.08279401,0.01900912,0.07115274
1756066383283,0.05765006,0.04277214,0.08634983,0.00280400,0.01818120,0.00347342,0.99383956,-0.08277845,0.01911003,0.07117201
1756066383294,0.01169593,0.05355143,0.08871910,0.01158468,0.01135543,-0.00890657,0.99384717,-0.08271473,0.01917248,0.07112303
1756066383306,0.03096492,-0.02997133,0.01478080,0.00355582,0.00952307,0.01251803,0.99384266,-0.08269428,0.01922724,0.07119501
1756066383317,-0.00434499,-0.00414868,-0.00217904,0.01067868,0.00748226,-0.00389654,0.99384824,-0.08263609,0.01926802,0.07117377
1756066383328,-0.01606298,-0.03922932,-0.07811468,0.00870165,0.01253411,-0.01233567,0.99385580,-0.08258779,0.01933758,0.07110531
1756066383339,0.01100565,0.07292752,0.03313788,-0.01399235,0.01387721,0.01028048,0.99384376,-0.08266545,0.01941460,0.07116236
1756066383350,0.02576047,0.01330353,0.07595105,0.00605710,0.00477205,0.00971512,0.99384217,-0.08263183,0.01944109,0.07121628
1756066383361,0.03035040,-0.00434908,-0.01671735,-0.00712594,-0.00093323,0.01662352,0.99383246,-0.08267102,0.01943595,0.07130771
1756066383372,0.06703879,-0.12255738,-0.04535514,0.00640553,0.00271191,-0.01230414,0.99384002,-0.08263547,0.01945100,0.07123942
1756066383383,-0.03646795,-0.07816376,0.02122132,-0.00609131,-0.00766655,-0.00860335,0.99384150,-0.08267019,0.01940731,0.07119038
1756066383394,-0.18921039,0.20874157,0.06958628,-0.01216038,0.00640571,-0.01403871,0.99384077,-0.08273708,0.01944254,0.07111317
1756066383405,-0.16773660,0.05265009,-0.09244743,0.00514757,0.00818811,-0.02415250,0.99385184,-0.08270851,0.01948798,0.07097913
1756066383417,0.03986246,-0.01860098,-0.03320373,0.00791489,0.02381259,-0.00270215,0.99385399,-0.08266418,0.01962133,0.07096399
1756066383428,-0.03991822,-0.04293320,-0.08693957,0.00296525,0.01918323,0.00952868,0.99384951,-0.08264788,0.01972684,0.07101640
1756066383439,0.09975157,-0.02068922,-0.03004862,0.01335825,0.02825361,0.00568138,0.99385029,-0.08257440,0.01988223,0.07104765
1756066383450,-0.00356353,0.04779099,-0.02674080,0.00246174,0.00298590,0.00855849,0.99384765,-0.08256050,0.01989910,0.07109600
1756066383461,0.01486738,-0.08665516,0.06441513,0.00711360,0.01633735,0.00710080,0.99384630,-0.08252137,0.01998896,0.07113506
1756066383472,0.04623911,0.03462326,-0.03859343,0.00321306,0.00896505,0.01453264,0.99384100,-0.08250354,0.02003872,0.07121571
1756066383483,0.07384247,-0.04324763,-0.01265805,0.01440178,0.01393051,0.00723002,0.99384324,-0.08242217,0.02011742,0.07125656
1756066383494,-0.00379913,0.02155781,-0.05470044,0.01904502,0.00303476,-0.00272148,0.99385265,-0.08231742,0.02013411,0.07124160
1756066383505,0.04650957,0.01395551,0.03008576,-0.00211322,0.01147395,-0.00550520,0.99385258,-0.08232915,0.02019779,0.07121104
1756066383517,-0.03358588,-0.09771088,0.04936849,0.00675976,0.01590003,-0.00954876,0.99385778,-0.08229096,0.02028763,0.07115709
1756066383528,-0.11997486,0.08941898,0.01817148,0.00080210,0.01289951,-0.00330254,0.99385799,-0.08228659,0.02035793,0.07113909
1756066383539,0.01521972,0.06245890,-0.04076938,0.00989199,0.01280204,0.01385046,0.99385557,-0.08223168,0.02042898,0.07121596
1756066383550,0.07032595,0.03270597,-0.02659720,0.02737430,-0.00132140,0.04759542,0.99384909,-0.08207428,0.02042139,0.07148964
1756066383561,0.08789169,0.03297745,0.04424836,-0.00421127,0.00340991,0.01061221,0.99384259,-0.08209744,0.02044014,0.07154800
1756066383573,-0.01301491,-0.14614095,0.07236063,-0.01557668,-0.00428415,-0.00108139,0.99383620,-0.08218623,0.02041572,0.07154184
1756066383584,0.01237983,-0.10001732,0.04397106,-0.01790625,-0.00457386,-0.02886314,0.99383998,-0.08228472,0.02039056,0.07138309
1756066383595,0.04679291,0.04423134,-0.07305871,-0.00560098,0.00545848,-0.03062477,0.99384906,-0.08231608,0.02042113,0.07121159
1756066383606,0.05104473,0.05262776,-0.00314231,0.00136681,0.00311543,-0.01809770,0.99385652,-0.08230850,0.02043842,0.07111115
1756066383617,-0.04711443,0.02694041,0.02198968,0.00586126,0.01255859,-0.00459536,0.99385966,-0.08227538,0.02050938,0.07108519
1756066383644,-0.04885589,0.02990299,-0.05634011,0.00016480,0.00596005,0.01266092,0.99384625,-0.08227320,0.02058805,0.07125231
1756066383655,-0.04281754,-0.06694440,-0.13514507,0.00701159,-0.00157520,0.01455160,0.99384381,-0.08223359,0.02057915,0.07133453
1756066383667,-0.00441489,-0.04836919,-0.05561238,-0.01101922,-0.00090330,-0.00904258,0.99384238,-0.08229805,0.02057387,0.07128163
1756066383678,-0.00021675,-0.05132369,0.02224263,-0.00520497,-0.00900079,-0.00960882,0.99384495,-0.08232824,0.02052166,0.07122590
1756066383690,0.07308834,-0.06400766,0.00177184,0.01789978,-0.00855350,-0.00776437,0.99385780,-0.08222442,0.02047205,0.07118087
1756066383701,-0.04667917,0.07589286,0.23421855,0.00899782,-0.00277877,0.00943040,0.99385852,-0.08217268,0.02045607,0.07123509
1756066383713,-0.00709947,0.09136623,0.05496435,0.02217363,-0.00780984,0.01483176,0.99386400,-0.08204186,0.02041000,0.07132260
1756066383725,0.08622798,0.12967593,0.01166412,0.00223261,-0.00462968,0.02732302,0.99385398,-0.08202858,0.02038245,0.07148517
1756066383736,0.04468901,-0.16453462,-0.22396144,0.01526195,-0.00979561,0.01166492,0.99385733,-0.08194616,0.02032955,0.07154816
1756066383747,0.00521327,-0.00795292,0.09250968,0.00174831,-0.00139399,-0.01725584,0.99386546,-0.08193611,0.02032154,0.07144894
1756066383759,0.04747805,-0.04684193,0.13151356,-0.01212782,0.00127649,0.00120548,0.99385912,-0.08200524,0.02032881,0.07145581
1756066383770,-0.04930363,-0.02900888,0.10548683,-0.02706215,0.00263079,-0.01883860,0.99385379,-0.08215949,0.02034381,0.07134843
1756066383782,0.03711147,0.03473542,0.02876518,-0.02601992,0.02042729,-0.00644783,0.99384155,-0.08231041,0.02046229,0.07131103
1756066383793,0.04149950,0.04340015,-0.01997823,-0.01346569,0.00692995,0.00124947,0.99383407,-0.08238514,0.02050075,0.07131797
1756066383804,0.08637541,0.01596344,0.03690599,0.00900982,0.01168607,-0.00141577,0.99383750,-0.08233424,0.02056677,0.07130997
1756066383815,-0.01467439,-0.03851041,-0.07404578,0.01899944,0.00733172,-0.00668064,0.99384814,-0.08222784,0.02060783,0.07127256
1756066383827,-0.04101742,-0.03816322,-0.10895119,-0.00126348,0.01069570,-0.00785361,0.99384949,-0.08223504,0.02066880,0.07122779
1756066383838,-0.01539772,-0.14585505,-0.02318251,0.00979054,0.01253911,-0.00434691,0.99385426,-0.08218070,0.02073839,0.07120367
1756066383849,0.03942498,0.21796023,0.05180338,0.00919048,0.01763302,-0.01930886,0.99386428,-0.08212878,0.02083802,0.07109457
1756066383860,0.03136927,0.05899925,-0.03005731,0.01272232,0.00063850,0.02600213,0.99385966,-0.08205753,0.02084159,0.07124018
1756066383872,0.05818226,-0.01623248,-0.05773214,-0.00488428,-0.01080668,0.02103557,0.99385013,-0.08208513,0.02078053,0.07135903
1756066383883,-0.03057486,-0.08332234,0.01470394,-0.02624114,-0.01372343,-0.00636989,0.99384208,-0.08223339,0.02070300,0.07132304
1756066383894,-0.26716595,-0.11654358,-0.03764034,-0.01820374,-0.01838770,-0.01394772,0.99384139,-0.08233351,0.02060186,0.07124633
1756066383905,-0.21605458,0.08602548,-0.17971696,-0.00031210,-0.02050140,-0.01380966,0.99384923,-0.08233527,0.02048603,0.07116831
1756066383916,0.07714486,-0.04532250,-0.05356955,0.01072102,0.00650658,0.00172546,0.99385276,-0.08227524,0.02052247,0.07117797
1756066383928,0.06001273,0.07753085,0.03301910,0.00248947,0.00173329,0.00491134,0.99385175,-0.08226142,0.02053209,0.07120523
1756066383939,0.19877504,-0.05640653,0.06302138,-0.01232784,-0.00118084,-0.00675076,0.99384888,-0.08233046,0.02052548,0.07116742
1756066383950,-0.00471823,-0.09496120,-0.03319864,-0.01414126,0.00012619,-0.03108581,0.99385491,-0.08241177,0.02052620,0.07098868
1756066383961,0.00040693,0.01728385,-0.06277442,-0.02068445,0.00412295,-0.03340816,0.99385811,-0.08252553,0.02054888,0.07080493
1756066383972,-0.06674735,0.05812684,-0.02290592,0.00512056,-0.00067427,-0.00113518,0.99386097,-0.08249737,0.02054517,0.07079869
1756066383984,-0.01392593,0.15211368,0.03172527,0.00690845,0.00795276,0.01169321,0.99385855,-0.08245799,0.02059050,0.07086534
1756066383995,-0.07427061,0.01710363,-0.16045710,0.02222977,0.01658857,0.01208991,0.99386208,-0.08233462,0.02068257,0.07093244
1756066384006,0.04619953,-0.05031153,-0.02975153,0.00733038,0.01352198,0.02046757,0.99385577,-0.08229393,0.02075761,0.07104604
1756066384017,0.05001506,-0.01458724,0.10045696,-0.00249351,0.00403086,-0.00313972,0.99385540,-0.08230802,0.02078039,0.07102830
1756066384028,0.08457930,-0.06736719,0.19258462,-0.01821884,-0.01225466,-0.01591957,0.99385474,-0.08241005,0.02071176,0.07093915
1756066384039,0.05349919,-0.07355275,0.09889100,-0.02055458,-0.01111033,-0.02075794,0.99385477,-0.08252412,0.02065010,0.07082394
1756066384051,0.04593151,0.08216173,-0.00178722,-0.01479814,-0.01092123,-0.01029427,0.99385326,-0.08260699,0.02058894,0.07076629
1756066384062,-0.04044381,0.05825659,-0.00790360,0.00103343,-0.00178979,-0.00448511,0.99385570,-0.08260131,0.02057910,0.07074162
1756066384073,-0.03998726,0.11645636,0.01821608,-0.01420834,-0.00213896,0.01876246,0.99384184,-0.08268088,0.02056712,0.07084669
1756066384084,-0.02445387,-0.01504746,-0.04091483,0.00161215,-0.00068898,0.01294533,0.99383754,-0.08267193,0.02056329,0.07091854
1756066384095,-0.10908893,-0.11561976,-0.05635858,0.00725244,-0.00349151,-0.00191883,0.99384205,-0.08263168,0.02054392,0.07090789
1756066384101,0.00478589,-0.32568893,-0.03099272,-0.00259510,-0.00895782,0.00787730,0.99384039,-0.08263894,0.02051883,0.07092995
1756066384106,-0.04323998,0.14017355,0.10453621,-0.01421621,-0.00015527,-0.01058380,0.99383920,-0.08267875,0.02051840,0.07090031
1756066384114,0.06489469,-0.08196093,0.01627133,-0.00781177,-0.00522445,-0.00646216,0.99383888,-0.08271039,0.02049724,0.07087414
1756066384125,0.00107055,0.01081304,-0.00132587,-0.00329181,-0.00057755,-0.01420163,0.99384304,-0.08272866,0.02049404,0.07079532
1756066384137,0.04619953,0.10134870,0.03047717,-0.00686347,0.00645873,-0.01103397,0.99384349,-0.08276675,0.02052988,0.07073408
1756066384148,-0.07648592,0.07543993,-0.04371343,-0.00133752,0.01165957,-0.00437213,0.99384324,-0.08277477,0.02059984,0.07070785
1756066384159,-0.02905984,-0.00309161,-0.06719381,0.01252435,0.01347414,0.01101800,0.99384312,-0.08270652,0.02067327,0.07076790
1756066384170,-0.01693171,0.03474137,-0.05995080,0.01144308,0.00685130,0.00679931,0.99384489,-0.08264415,0.02071061,0.07080496
1756066384181,0.02242123,-0.05100448,0.11139547,0.00487875,0.01913428,-0.00581337,0.99384720,-0.08261732,0.02081585,0.07077298
1756066384193,-0.08673913,-0.15036583,0.02930038,-0.01450131,-0.01002686,-0.00566324,0.99384388,-0.08269853,0.02075970,0.07074127
1756066384204,0.08067640,-0.01171942,0.09915664,-0.01342344,0.00280949,-0.02887443,0.99384875,-0.08277303,0.02077529,0.07058102
1756066384215,-0.00159097,0.02207160,0.00114053,-0.01440584,0.00971432,0.00061407,0.99384079,-0.08285226,0.02082872,0.07058439
1756066384226,-0.06125369,0.18093274,0.05017587,-0.00255012,0.01492286,0.01957308,0.99382996,-0.08286667,0.02091304,0.07069498
1756066384237,-0.01934001,0.14171197,-0.15622189,0.01832963,0.01073598,0.01548263,0.99383105,-0.08276585,0.02097208,0.07078013
1756066384248,-0.00373598,-0.07208533,-0.21160086,0.03190806,0.00671842,0.01094411,0.99384067,-0.08258876,0.02100937,0.07084087
1756066384259,0.01917139,0.00859256,0.09291180,0.01932985,-0.00541953,-0.00477068,0.99385220,-0.08248052,0.02097902,0.07081416
1756066384270,0.09550808,-0.17070287,0.14349970,0.00191988,0.00386431,0.00607904,0.99385021,-0.08246977,0.02100066,0.07084820
1756066384281,0.02197789,-0.01650651,0.08562010,-0.01464044,-0.00440920,-0.01928013,0.99385159,-0.08255029,0.02097641,0.07074216
1756066384292,0.06798653,-0.14129117,0.00992377,-0.01576577,0.00332526,0.00053570,0.99384372,-0.08263779,0.02099487,0.07074513
1756066384304,0.09468617,0.03257981,-0.03880725,-0.01683634,0.01432957,-0.00602506,0.99383658,-0.08273207,0.02107511,0.07071139
1756066384315,-0.00553296,0.02221320,0.00954853,-0.00406096,0.00445097,-0.00735058,0.99383707,-0.08275441,0.02109959,0.07067097
1756066384326,-0.11347827,0.13057402,-0.05187110,0.00589293,0.00082284,-0.01227713,0.99384481,-0.08272052,0.02110432,0.07060037
1756066384337,-0.12339024,-0.01103241,-0.10311248,0.01775218,-0.00014839,-0.00494271,0.99385461,-0.08262555,0.02110353,0.07057393
1756066384348,0.07739783,0.11399327,0.01738388,0.01530383,0.01348758,-0.00729614,0.99386295,-0.08254061,0.02117839,0.07053343
1756066384359,-0.02696988,-0.10413034,0.14004987,-0.00111965,0.01092518,0.00176804,0.99386044,-0.08254683,0.02123902,0.07054325
1756066384370,-0.02135458,0.05549366,0.07284359,-0.01928460,0.01931352,-0.00179383,0.99384986,-0.08265482,0.02134718,0.07053320
1756066384381,0.14224625,-0.06445948,0.02252745,-0.01076835,0.02311407,0.00830353,0.99383885,-0.08271458,0.02147546,0.07057929
1756066384392,-0.04281317,-0.03277506,-0.06555011,-0.00124186,0.00836649,-0.01004008,0.99384123,-0.08272148,0.02152189,0.07052356
1756066384404,-0.10642823,0.06022870,0.00774023,-0.03534292,0.00783224,-0.01684724,0.99383057,-0.08291763,0.02156536,0.07043006
1756066384415,0.01209412,-0.03120282,-0.06748517,-0.04696739,-0.00846130,-0.01982882,0.99381760,-0.08317830,0.02151840,0.07032001
1756066384426,0.06527092,0.11499732,-0.09985733,-0.01776312,0.00568875,0.00914437,0.99380496,-0.08327777,0.02155026,0.07037122
1756066384437,-0.00617070,-0.01500452,-0.12755711,0.00311627,0.00348367,-0.02183340,0.99381447,-0.08326063,0.02156942,0.07025114
1756066384448,-0.07546619,-0.21726751,-0.10300449,0.01810982,-0.00656731,-0.00741586,0.99382659,-0.08316012,0.02153297,0.07020998
1756066384459,0.04765082,0.09772046,0.04257129,0.01103008,0.01599377,-0.01308662,0.99383491,-0.08309891,0.02162174,0.07013735
1756066384470,-0.03420222,-0.07241123,0.04001014,0.02722106,0.00697831,0.01229626,0.99384193,-0.08294647,0.02166082,0.07020621
1756066384481,0.07483787,0.09731936,0.05004732,0.01580681,0.00990912,0.02605026,0.99383786,-0.08285953,0.02171532,0.07034948
1756066384492,-0.09226272,-0.05627502,0.04524519,0.00831481,0.00021519,0.00544408,0.99383954,-0.08281338,0.02171651,0.07037970
1756066384504,0.05043247,-0.00592612,-0.00846588,-0.00848635,0.00400369,-0.00723764,0.99383797,-0.08286048,0.02173873,0.07033953
1756066384515,0.13892733,0.00147607,0.02832711,-0.01800241,0.00370512,-0.01205721,0.99383385,-0.08296220,0.02175966,0.07027141
1756066384526,-0.01540902,-0.06387022,0.01383422,-0.02845648,-0.01447801,-0.00996267,0.99382639,-0.08311871,0.02168003,0.07021661
1756066384537,0.09758083,-0.16666572,0.00220113,-0.02521850,-0.01230672,-0.03910494,0.99383147,-0.08325867,0.02161173,0.06999958
1756066384548,-0.04535294,0.13702634,0.10521882,-0.03583113,0.04340799,-0.02936479,0.99382099,-0.08345753,0.02185265,0.06983660
1756066384559,0.04849741,0.16653599,0.12456940,0.00139617,0.01131514,0.02056761,0.99381223,-0.08344978,0.02191545,0.06995075
1756066384570,-0.20964362,0.11530177,-0.17276959,-0.00026527,0.01227003,0.00487383,0.99380872,-0.08345124,0.02198293,0.06997756
1756066384581,0.03701964,-0.10721657,-0.13264867,0.00803833,0.05797821,-0.02711165,0.99381595,-0.08340623,0.02230761,0.06982574
1756066384592,0.00495427,0.04834299,-0.05244527,-0.00193054,-0.00167467,0.01245665,0.99381040,-0.08341694,0.02229831,0.06989487
1756066384603,0.17826728,0.02056000,0.02104376,-0.02910972,0.01354098,0.00680742,0.99379248,-0.08357850,0.02237347,0.06993265
1756066384615,0.08042588,-0.15395811,-0.01548047,-0.00107586,-0.00776325,-0.01130943,0.99379736,-0.08358447,0.02233038,0.06986988
1756066384626,0.08557671,-0.13772495,-0.07802973,-0.01925175,-0.01414480,-0.01369844,0.99379545,-0.08369228,0.02225117,0.06979317
1756066384637,-0.05787175,-0.05799490,0.19506975,-0.06038303,-0.02586111,-0.03453863,0.99378393,-0.08402439,0.02210893,0.06960321
1756066384648,0.03824599,0.00002969,0.14713702,-0.02980983,0.00469710,-0.02359687,0.99377851,-0.08418983,0.02213500,0.06947225
1756066384659,-0.07471297,0.14452883,-0.22017644,-0.01346682,-0.01371985,0.01314763,0.99376859,-0.08426592,0.02205749,0.06954653
1756066384670,-0.06326507,0.07757573,-0.24801073,0.03041514,-0.00013811,-0.00837742,0.99378615,-0.08409712,0.02205672,0.06950004
1756066384681,0.16726667,0.04168575,0.00999846,0.00169656,0.01295879,0.03729851,0.99377099,-0.08408779,0.02212799,0.06970518
1756066384693,-0.31342099,-0.04162828,0.12956019,-0.04051039,0.00105570,-0.04131155,0.99376781,-0.08431667,0.02213396,0.06947177
1756066384704,-0.10486939,-0.21043299,-0.00378605,-0.00279051,-0.03939630,-0.02806324,0.99378209,-0.08433202,0.02191728,0.06931742
1756066384715,0.29161942,0.21255706,-0.00886681,-0.03591234,0.01488063,0.00826270,0.99376033,-0.08452954,0.02199912,0.06936287
1756066384726,-0.18723860,-0.08067647,-0.05626381,0.02826528,-0.01332913,-0.00796917,0.99377854,-0.08437125,0.02192448,0.06931824
1756066384737,0.04650512,0.11834201,0.08255314,-0.00726040,0.01400989,0.00465866,0.99377160,-0.08441155,0.02200223,0.06934409
1756066384748,-0.09790543,0.02466996,0.00304658,-0.01361433,-0.00299818,-0.00886588,0.99376900,-0.08448642,0.02198574,0.06929533
1756066384759,0.07115180,-0.06400140,0.04587502,0.00959472,0.00083408,-0.00111953,0.99377395,-0.08443221,0.02199046,0.06928901
1756066384770,-0.01373396,0.08852966,-0.02200354,0.00059322,-0.00960444,0.00969127,0.99377167,-0.08442895,0.02193763,0.06934231
1756066384781,0.08040828,0.00425383,0.04150481,-0.00417352,-0.01636782,0.00344460,0.99377037,-0.08445211,0.02184679,0.06936143
1756066384792,0.01257788,-0.11041929,0.08562635,-0.01705146,-0.01771971,-0.00140847,0.99376503,-0.08454675,0.02174845,0.06935361
1756066384803,0.08076942,-0.20538026,-0.04707554,-0.00596881,0.01383622,-0.01248208,0.99376536,-0.08458018,0.02182593,0.06928371
1756066384815,-0.14620059,0.13660089,-0.07561846,-0.00859444,-0.00138437,-0.01158792,0.99376595,-0.08462787,0.02181824,0.06921940
1756066384826,-0.02022446,0.06383151,0.03265365,0.00672430,0.02468433,-0.00144634,0.99376668,-0.08459022,0.02195648,0.06921130
1756066384837,-0.10966781,0.07488295,0.07370974,0.00559232,0.01339589,0.00384516,0.99376617,-0.08455834,0.02203283,0.06923321
1756066384848,0.03636393,0.10363908,0.04405320,0.00797872,0.01100695,-0.00733412,0.99377123,-0.08451566,0.02209172,0.06919398
1756066384859,0.04077978,-0.04106009,0.18485914,-0.01514672,-0.00776745,0.01393744,0.99375964,-0.08459972,0.02204861,0.06927133
1756066384870,0.08502164,-0.05877741,0.13279340,-0.01435666,0.00138286,-0.00726086,0.99375550,-0.08467940,0.02205629,0.06923103
1756066384881,-0.10787952,-0.03325882,-0.10231623,-0.01650561,-0.01773734,-0.01367825,0.99375515,-0.08477101,0.02195784,0.06915512
1756066384893,0.06518209,-0.02740651,-0.11385115,-0.00904725,0.00111295,-0.01288916,0.99375571,-0.08482167,0.02196408,0.06908294
1756066384904,-0.06202014,0.00346518,0.01715637,-0.00209119,0.01949293,-0.00258071,0.99375332,-0.08483328,0.02207226,0.06906861
1756066384915,-0.08804517,0.06313129,0.07861176,0.01304715,0.01484445,0.01891271,0.99375036,-0.08476086,0.02215465,0.06917358
1756066384926,-0.01233600,0.04861835,-0.05369788,-0.00471197,0.00655149,-0.00332416,0.99374860,-0.08478702,0.02219101,0.06915513
1756066384937,0.02980588,-0.19128157,-0.06616560,0.02309648,0.03426542,-0.00387912,0.99375684,-0.08465768,0.02238290,0.06913341
1756066384948,-0.04402357,0.20651314,-0.01103025,0.01856856,-0.00102860,-0.00122725,0.99376605,-0.08455648,0.02237729,0.06912672
1756066384959,0.09321181,0.10252984,0.03282995,0.00066782,-0.02513771,-0.00023942,0.99376962,-0.08455274,0.02223652,0.06912538
1756066384970,0.06036368,-0.28969405,0.04374183,0.00940516,-0.02062065,-0.00071551,0.99377689,-0.08450054,0.02212207,0.06912141
1756066384981,0.02576047,0.07498352,0.07691858,-0.03452516,-0.02764198,0.00355513,0.99376261,-0.08469215,0.02196866,0.06914114
1756066384992,0.00255026,-0.05246716,0.04411111,-0.01653657,-0.02593625,-0.00106439,0.99375833,-0.08478476,0.02182342,0.06913518
1756066385004,-0.04280125,0.00941658,-0.02709742,-0.02553535,-0.01138750,-0.01519337,0.99375352,-0.08492520,0.02176079,0.06905161
1756066385015,-0.06641937,0.07426174,-0.00070843,-0.01925785,0.01556193,-0.01133092,0.99374679,-0.08503305,0.02184793,0.06898816
1756066385026,0.00961503,0.13208581,-0.07818147,0.00180799,0.00184984,-0.01045454,0.99375157,-0.08502274,0.02185848,0.06892857
1756066385037,-0.09236750,-0.06953664,-0.14050351,0.01695157,-0.00291798,-0.02641727,0.99376980,-0.08493035,0.02184258,0.06878460
1756066385048,-0.05935416,-0.01224530,-0.00796010,0.01289466,0.00138770,-0.00964679,0.99377954,-0.08485814,0.02185035,0.06873057
1756066385059,0.00209014,0.14527644,0.10817066,0.01018056,-0.00677976,0.01382331,0.99377988,-0.08480062,0.02181204,0.06880868
1756066385071,0.08112431,0.03218795,-0.03179452,0.02702082,-0.00914616,0.04523484,0.99377640,-0.08465201,0.02176174,0.06905747
1756066385082,-0.00837353,0.02969106,-0.08041708,0.06396948,-0.01022724,0.07296961,0.99377959,-0.08429698,0.02170498,0.06946245
1756066385104,0.08275488,-0.13583195,0.05987341,-0.00255816,-0.00186745,0.00063224,0.99377710,-0.08432589,0.02168387,0.06946959
1756066385115,0.05219418,-0.29624947,0.10636512,-0.00690293,-0.00219744,-0.04067562,0.99378964,-0.08436351,0.02167190,0.06924791
1756066385126,-0.06160795,0.12559483,0.05167471,-0.03663912,-0.00071422,-0.02506741,0.99378199,-0.08457052,0.02166786,0.06910628
1756066385137,-0.19197965,0.03058955,-0.09803084,-0.00955245,0.00348289,-0.02283560,0.99378587,-0.08462353,0.02168719,0.06897954
1756066385148,0.03261148,0.12598279,-0.09195440,0.00242465,0.00189628,-0.01013508,0.99379060,-0.08461032,0.02169753,0.06892431
1756066385160,0.00868490,0.17518289,-0.00382213,0.00364377,-0.00434845,0.02546520,0.99378290,-0.08458973,0.02167296,0.06906818
1756066385171,0.04911496,0.03863910,-0.05626226,0.02975709,-0.00289275,0.04288681,0.99378072,-0.08442458,0.02165690,0.06930621
1756066385182,0.03579859,0.00701459,0.03918494,0.01724253,-0.00310007,0.03045038,0.99377742,-0.08432889,0.02163970,0.06947521
1756066385193,-0.03276374,-0.14438901,0.04478258,-0.00155743,-0.00726925,0.00113676,0.99377712,-0.08433768,0.02159863,0.06948163
1756066385204,0.07507336,-0.25789146,0.02835604,-0.02279418,0.00458883,0.00106977,0.99376561,-0.08446191,0.02162364,0.06948746
1756066385215,-0.05882014,0.00154537,-0.15879869,-0.02522001,-0.00003697,-0.01488270,0.99375943,-0.08460315,0.02162343,0.06940412
1756066385226,-0.02189467,0.07842387,-0.07091256,-0.01184126,0.01544371,-0.02113295,0.99376015,-0.08466886,0.02170914,0.06928683
1756066385237,-0.03949013,0.11222524,-0.01054431,-0.00827585,0.00885036,-0.00530076,0.99375724,-0.08471438,0.02175782,0.06925767
1756066385249,0.06594852,-0.07129197,-0.07688163,0.00426450,-0.00213316,-0.00701050,0.99376227,-0.08469050,0.02174587,0.06921842
1756066385260,0.04894195,-0.05642579,0.02304548,0.00829684,-0.00245106,-0.00254391,0.99376752,-0.08464404,0.02173215,0.06920417
1756066385271,0.00641636,0.02212899,0.10613235,0.00020024,-0.01759383,-0.00461417,0.99377153,-0.08464293,0.02163450,0.06917856
1756066385282,0.04612359,-0.06851805,0.00288903,0.00185673,-0.01640707,-0.01448082,0.99377990,-0.08463271,0.02154426,0.06909892
1756066385293,-0.03405352,0.09292764,-0.02952670,-0.00896410,-0.01327465,-0.01602364,0.99378350,-0.08468336,0.02146926,0.06900838
1756066385304,-0.02700520,0.03606722,0.04122488,-0.01853171,-0.00893250,0.00463081,0.99377401,-0.08478621,0.02141968,0.06903408
1756066385315,-0.07741925,0.05656250,0.02961815,-0.02461350,-0.01265493,-0.01340088,0.99376907,-0.08492159,0.02135008,0.06896038
1756066385327,0.05612483,-0.03713720,-0.02989905,-0.00230186,-0.00878580,-0.01006349,0.99377300,-0.08493471,0.02130000,0.06890302
1756066385338,0.14945124,0.01507021,0.09833155,-0.01154046,-0.00402479,0.00523557,0.99376612,-0.08499760,0.02127807,0.06893155
1756066385349,0.03737519,0.01705713,0.04791048,0.00765614,-0.00392706,0.00031402,0.99377002,-0.08495588,0.02125667,0.06893326
1756066385360,-0.04035281,0.03142725,0.05601069,-0.00743988,-0.01365979,0.00840458,0.99376473,-0.08499828,0.02117881,0.06898117
1756066385371,0.02746247,-0.00609053,0.01792374,-0.00589608,-0.00808507,-0.00046006,0.99376308,-0.08503071,0.02113434,0.06897864
1756066385382,-0.04254595,0.02546243,0.02379153,0.00343888,-0.00070642,0.00282747,0.99376372,-0.08501128,0.02113035,0.06899461
1756066385393,0.02885678,0.10639612,-0.01850079,0.00259408,0.01404456,0.01619867,0.99375705,-0.08499689,0.02120829,0.06908452
1756066385404,-0.01361419,0.01893960,-0.04912025,0.00816540,0.02273725,0.02452656,0.99374882,-0.08495198,0.02133335,0.06921941
1756066385415,0.01917577,-0.02675109,-0.04904274,0.00855058,0.01847797,0.00191389,0.99374993,-0.08490452,0.02143590,0.06923003
1756066385427,0.00951827,-0.15563994,0.01237140,-0.00417087,0.01154105,-0.00474452,0.99374839,-0.08492788,0.02150053,0.06920346
1756066385438,-0.01395791,-0.10648870,0.09950866,-0.03271756,-0.00082508,-0.01984853,0.99374062,-0.08510946,0.02149595,0.06909331
1756066385449,0.03519388,-0.04426447,-0.00338635,-0.03806553,-0.01100828,-0.05306011,0.99374425,-0.08532072,0.02143486,0.06879882
1756066385460,0.00152395,0.04439578,-0.08195947,-0.00831544,-0.00363281,-0.00825413,0.99374389,-0.08536729,0.02141451,0.06875260
1756066385471,0.02901064,0.09288156,-0.11211936,-0.01774212,-0.00105589,0.00691461,0.99373300,-0.08546487,0.02140870,0.06879063
1756066385482,-0.05165687,0.01557028,-0.01009941,-0.00131872,-0.00173852,0.01676665,0.99372607,-0.08547226,0.02139897,0.06888452
1756066385494,0.04505098,0.01797084,-0.12492163,0.02578447,-0.00262868,-0.01131200,0.99374349,-0.08532528,0.02138399,0.06882004
1756066385505,0.06034646,-0.08453469,-0.02012716,0.00980636,0.00428951,0.00837436,0.99374443,-0.08527086,0.02140779,0.06886652
1756066385515,0.01040673,-0.00164353,0.15880788,-0.01214149,-0.00588359,-0.00273341,0.99374051,-0.08533642,0.02137602,0.06885176
1756066385527,-0.06420764,-0.01574990,0.02660497,-0.00605005,-0.02568771,-0.02303753,0.99374969,-0.08537061,0.02123089,0.06872160
1756066385538,0.06745413,-0.01961709,-0.08121895,-0.02064708,-0.02160629,-0.00312771,0.99374360,-0.08548520,0.02111097,0.06870424
1756066385549,-0.06716409,-0.00070526,0.03264723,-0.01757389,-0.02551629,-0.00162463,0.99373878,-0.08558361,0.02096808,0.06869514
1756066385560,-0.03824753,0.04924642,0.08865633,-0.01180689,-0.00538165,0.00675975,0.99373131,-0.08564796,0.02093875,0.06873198
1756066385571,-0.08725805,0.15264623,-0.04656429,0.01340396,-0.00787654,0.00739394,0.99373576,-0.08557424,0.02089543,0.06877265
1756066385582,-0.04415002,0.04688181,-0.13280439,0.02321263,-0.00173171,0.02482709,0.99373753,-0.08544309,0.02088564,0.06891292
1756066385594,0.07036886,0.00245066,0.04481201,0.02245040,0.01516727,0.00788463,0.99374353,-0.08531624,0.02097134,0.06895747
1756066385604,-0.10053808,-0.02872342,0.11939993,-0.00137136,-0.00128091,-0.00474362,0.99374483,-0.08532372,0.02096436,0.06893162
1756066385616,0.03524599,-0.13321981,0.00549230,-0.01563275,0.00688282,-0.00264683,0.99373746,-0.08541204,0.02100325,0.06891666
1756066385627,-0.07410584,-0.01565532,-0.07075572,-0.01385786,-0.00782960,-0.02893417,0.99374284,-0.08548826,0.02096018,0.06875753
1756066385638,0.01293076,-0.01120666,0.10073678,-0.02295193,-0.00392474,-0.01247492,0.99373717,-0.08561449,0.02093860,0.06868891
1756066385649,0.07869291,0.04408773,0.15147461,-0.01046922,-0.00142227,0.00486493,0.99373052,-0.08567207,0.02093077,0.06871567
1756066385660,0.06399882,0.10064194,-0.02341140,-0.00511494,-0.01305906,0.01885429,0.99372214,-0.08570123,0.02085634,0.06882314
1756066385671,0.09006870,-0.02619032,0.01538450,-0.00810268,-0.00882557,0.01956564,0.99371167,-0.08574660,0.02080692,0.06893271
1756066385682,-0.10298426,-0.14339729,0.04431204,-0.00712386,-0.01281134,-0.01020614,0.99371365,-0.08578579,0.02073645,0.06887657
1756066385694,-0.03819675,-0.01561132,-0.02593967,-0.01618086,-0.01671962,-0.01918541,0.99371521,-0.08587640,0.02064282,0.06876914
1756066385704,0.36161980,-0.19684980,0.01289397,-0.00691147,0.00303276,-0.02202004,0.99371987,-0.08591372,0.02065920,0.06865023
1756066385716,0.23321437,-0.18243888,-0.14036818,0.01469562,-0.00586557,-0.00760263,0.99373070,-0.08583069,0.02062606,0.06860727
1756066385727,-0.04623393,0.11468497,0.01443575,0.00518654,0.00731378,0.01499929,0.99372655,-0.08580165,0.02066702,0.06869127
1756066385738,-0.20871262,0.18182052,0.07287421,0.00662941,-0.00185362,0.02625382,0.99372004,-0.08576585,0.02065701,0.06883304
1756066385749,-0.40855125,0.18341076,0.02507223,0.00831583,-0.01365089,-0.00229917,0.99372665,-0.08571845,0.02057920,0.06881993
1756066385760,0.02379922,-0.08679256,0.03755422,0.00136318,-0.00266366,-0.00094917,0.99372800,-0.08571074,0.02056415,0.06881457
1756066385771,-0.07272789,0.11988473,0.07349328,-0.01231474,-0.00632629,0.00123009,0.99372251,-0.08577724,0.02052999,0.06882121
1756066385782,-0.19919955,0.26662892,-0.14230299,-0.00119337,-0.00416436,0.00420022,0.99372078,-0.08578393,0.02050666,0.06884473
1756066385794,-0.07906286,0.06506953,-0.06993541,0.00713484,-0.01415662,0.00162377,0.99372528,-0.08574362,0.02042668,0.06885391
1756066385805,0.03799344,-0.08139785,-0.05000548,0.02095619,-0.00764694,-0.00555115,0.99373819,-0.08562836,0.02038462,0.06882338
1756066385816,0.16843366,-0.24736537,0.22298033,0.00837371,0.00451778,0.00993046,0.99373786,-0.08558188,0.02040970,0.06887849
1756066385827,-0.00148343,0.07330734,0.04413495,0.01346244,-0.00261032,0.01999289,0.99373688,-0.08550582,0.02039495,0.06899145
1756066385838,-0.11727112,-0.01230671,-0.05606389,0.01846953,-0.00097993,0.01161036,0.99374125,-0.08540516,0.02038961,0.06905473
1756066385849,0.09093517,0.20197982,-0.25592844,0.00907279,0.01444771,0.02614857,0.99373376,-0.08535435,0.02047051,0.06920116
1756066385860,-0.01532406,-0.05797008,-0.04846679,0.01463775,0.00116214,0.01791705,0.99373367,-0.08527238,0.02047702,0.06930150
1756066385871,-0.00018253,-0.16452876,0.03082871,0.00898691,-0.00060657,-0.00502926,0.99373986,-0.08522340,0.02047372,0.06927409
1756066385883,0.04222971,-0.15087347,0.36414608,-0.00560781,-0.00664300,-0.00365859,0.99373936,-0.08525481,0.02043652,0.06925360
1756066385894,0.08966176,-0.07579409,0.06354599,-0.00711867,-0.00913250,-0.00117787,0.99373741,-0.08529538,0.02038446,0.06924688
1756066385905,-0.07949663,-0.02809334,0.07697097,-0.02158232,-0.01588936,0.00582527,0.99372677,-0.08541409,0.02029707,0.06927892
1756066385916,-0.37613486,-0.24919148,0.15795863,-0.12295654,-0.06180051,0.02521558,0.99366618,-0.08608420,0.01996026,0.06941635
1756066385927,-0.04816490,0.11775145,-0.13007303,0.12113584,0.04657377,-0.10934529,0.99376202,-0.08540584,0.02022107,0.06880401
1756066385938,-0.07908441,0.35148490,-0.31398712,-0.02006236,-0.00981367,0.05685920,0.99373083,-0.08552019,0.02016513,0.06912811
1756066385949,0.55128837,0.26155517,0.04637996,0.01704600,0.02501579,0.06026992,0.99371347,-0.08542900,0.02029897,0.06945056
1756066385961,-0.29832795,-0.10125129,0.03651010,0.05761915,-0.00236483,0.01632126,0.99373523,-0.08510345,0.02028560,0.06954277
1756066385971,0.13935615,-0.10459481,0.06937840,-0.00815904,0.01867745,0.00070157,0.99372907,-0.08514792,0.02038740,0.06954659
1756066385983,0.25517319,-0.21303176,0.10986982,0.02218613,0.01206677,-0.01097046,0.99374261,-0.08502367,0.02045497,0.06948516
1756066385994,-0.00512165,0.12807735,0.02074613,-0.00069471,0.01360999,0.00658128,0.99373801,-0.08502767,0.02053323,0.06952300
1756066386005,-0.04723100,0.04916952,-0.03199168,-0.01596531,0.01027155,0.02156722,0.99372133,-0.08511388,0.02058869,0.06963947
1756066386016,-0.14391999,0.04575943,-0.23604356,-0.00779213,0.01340749,0.00085292,0.99371575,-0.08515713,0.02066311,0.06964420
1756066386027,-0.01613060,-0.11843791,-0.07616276,-0.00651998,0.00732343,-0.00895860,0.99371527,-0.08519397,0.02070448,0.06959358
1756066386038,-0.03103426,0.00023752,-0.23150107,0.00320339,-0.00849716,-0.01727766,0.99372432,-0.08517651,0.02065817,0.06949942
1756066386050,-0.07367984,0.16775225,-0.47745098,0.02615265,-0.00538169,-0.01315077,0.99374297,-0.08502744,0.02062750,0.06942446
1756066386061,0.10491010,0.04734528,0.04659418,0.02893100,-0.00937932,0.00744796,0.99375488,-0.08486687,0.02057544,0.06946580
1756066386072,0.07909897,0.07430277,0.15252860,0.01229558,-0.00503102,0.03523655,0.99374766,-0.08479924,0.02054777,0.06965960
1756066386083,0.11424468,-0.14441115,0.49540227,0.00838172,-0.02992135,0.03522011,0.99374127,-0.08475231,0.02038021,0.06985683
1756066386094,0.05418015,-0.00606621,-0.06337324,0.00379762,-0.00753888,0.01118527,0.99373953,-0.08473085,0.02033762,0.06992003
1756066386105,-0.12261978,-0.10245712,0.11601248,-0.00356920,-0.00281453,-0.00790465,0.99374122,-0.08475030,0.02032228,0.06987695
1756066386116,-0.22819695,-0.17039185,0.19290921,-0.01008219,-0.00314057,-0.00975737,0.99374059,-0.08480727,0.02030453,0.06982182
1756066386127,-0.03415290,-0.03456594,-0.00122060,0.00403706,0.00294462,-0.01164498,0.99374666,-0.08478506,0.02032073,0.06975777
1756066386139,0.08097565,0.06737397,-0.05342644,-0.00046554,0.01326930,-0.00337976,0.99374624,-0.08478769,0.02039570,0.06973867
1756066386150,0.09353033,0.13936382,0.00997069,0.00514727,0.02497716,-0.00488386,0.99374772,-0.08475913,0.02053432,0.06971157
1756066386161,-0.00404620,0.13584010,0.02561078,0.00099533,0.01863094,0.01692123,0.99373953,-0.08475365,0.02063679,0.06980464
1756066386172,0.11046724,-0.04252331,0.04186596,0.02129025,0.03118425,0.03107621,0.99373402,-0.08463868,0.02080519,0.06997245
1756066386183,0.17780404,-0.20291891,0.00493263,0.02528810,0.03057714,-0.00362696,0.99374416,-0.08449328,0.02098101,0.06995159
1756066386194,0.10576987,0.00352852,0.01950055,0.01096749,0.02439145,0.00970723,0.99374269,-0.08443296,0.02111516,0.07000498
1756066386205,-0.00948404,0.05224887,0.07208007,0.01793511,-0.00380228,-0.00951680,0.99375508,-0.08433521,0.02109444,0.06995312
1756066386216,-0.13499062,0.12304032,-0.03360044,0.00651272,0.00509976,0.01496227,0.99375164,-0.08429841,0.02112325,0.07003765
1756066386228,0.10724542,-0.06056624,0.03104165,0.00371879,-0.00949490,0.02122155,0.99374610,-0.08427740,0.02106961,0.07015755
1756066386238,-0.13555657,0.02488026,-0.12788911,-0.01382826,-0.02393313,-0.00005221,0.99374251,-0.08435207,0.02094037,0.07015727
1756066386250,-0.14246442,-0.09531521,-0.16811420,-0.01806058,-0.01560769,0.00418297,0.99373403,-0.08445412,0.02085218,0.07018091
1756066386261,-0.12521112,-0.06394222,-0.10242530,-0.01100846,-0.02164953,-0.01328579,0.99373658,-0.08451576,0.02073095,0.07010651
1756066386272,-0.02412657,0.06456111,-0.00875253,0.00524155,-0.00319969,-0.00873577,0.99374273,-0.08448720,0.02071351,0.07005890
1756066386283,0.11960153,0.15614218,0.17116890,0.01273412,0.00081985,0.00981481,0.99374486,-0.08441461,0.02071818,0.07011484
1756066386294,-0.05988551,0.03871234,-0.05343418,0.03073200,-0.00527104,-0.00701470,0.99376253,-0.08424559,0.02068919,0.07007626
1756066386305,-0.06597451,-0.08168916,-0.00103790,0.04000634,0.01227968,0.01483263,0.99377409,-0.08402355,0.02075734,0.07015858
1756066386316,-0.14547099,0.02145839,0.05030751,0.00397846,0.00528682,0.01292511,0.99377025,-0.08400127,0.02078695,0.07023096
1756066386328,-0.08264385,-0.06083665,0.05929573,0.02423277,0.00744112,0.02334628,0.99377157,-0.08386678,0.02082825,0.07036053
1756066386338,0.03833835,-0.03059812,0.10739576,-0.00290852,0.01516850,0.03474453,0.99375477,-0.08388292,0.02091243,0.07055336
1756066386350,0.08300483,0.04360719,-0.04287546,0.00890032,-0.00161717,-0.00062021,0.99375946,-0.08383264,0.02090329,0.07054986
1756066386363,0.07134512,-0.05709606,-0.08126584,0.01901189,0.01126385,-0.00549281,0.99377130,-0.08370431,0.02097933,0.07051278
1756066386374,0.07413179,0.00263632,0.09436034,0.01805431,0.00555385,-0.00650577,0.99378156,-0.08360501,0.02100987,0.07047700
1756066386385,0.21084993,-0.06851207,0.10460751,0.00782994,0.01076623,-0.00564452,0.99378617,-0.08356155,0.02106962,0.07044568
1756066386397,0.02396049,0.04877714,0.11987846,0.00895019,0.01715391,-0.01627414,0.99379479,-0.08351143,0.02116569,0.07035454
1756066386408,-0.07446258,0.08768880,0.01424414,0.02120843,0.01297301,0.01436289,0.99379745,-0.08339584,0.02123639,0.07043282
1756066386419,-0.08068062,0.13086409,-0.04322107,0.01072134,0.00269212,0.02754879,0.99379099,-0.08333366,0.02125200,0.07059260
1756066386430,0.00145422,-0.04282015,0.03571229,0.01017359,-0.00611661,0.01240663,0.99379155,-0.08327821,0.02121867,0.07066022
1756066386441,-0.10922028,-0.14166661,-0.11646763,-0.00956543,0.00540852,0.01057647,0.99378220,-0.08333178,0.02124896,0.07071944
1756066386452,-0.36689875,-0.07505515,-0.17175537,-0.00615827,-0.00174904,-0.00952507,0.99378327,-0.08336504,0.02123951,0.07066801
1756066386463,0.04450299,0.14303645,-0.10338454,0.01154711,0.00298677,-0.00242796,0.99378925,-0.08330095,0.02125609,0.07065453
1756066386474,0.21563810,0.04535294,0.15238587,0.01993647,0.01416992,0.02919169,0.99378530,-0.08319030,0.02133473,0.07081655
1756066386486,-0.02226256,0.10727490,0.19930317,0.01699488,0.01950230,0.00398565,0.99378939,-0.08309343,0.02144589,0.07083927
1756066386497,0.04318236,-0.04377752,0.04469094,-0.00016806,0.02311029,0.02369306,0.99377715,-0.08309436,0.02157416,0.07097076
1756066386508,-0.10325303,-0.05585911,-0.01586528,0.00984206,0.00741658,0.00294998,0.99377963,-0.08304023,0.02161495,0.07098699
1756066386519,-0.14352880,-0.10000193,0.01880417,0.01906924,0.02260802,-0.00021932,0.99378599,-0.08293154,0.02174381,0.07098574
1756066386530,-0.07795649,0.08531913,0.03406310,0.00757260,0.02613379,0.03049719,0.99377453,-0.08289065,0.02188494,0.07115042
1756066386541,0.04796082,0.04878796,-0.11755924,0.03288550,0.02528996,0.02760645,0.99377566,-0.08270649,0.02202656,0.07130502
1756066386552,0.04716008,0.03611251,-0.06747337,0.03779388,0.04479906,0.00969304,0.99378376,-0.08249484,0.02227743,0.07135930
1756066386564,0.00006252,-0.03468326,0.03827693,-0.00695466,0.03887157,0.01191557,0.99377072,-0.08253413,0.02249706,0.07142662
1756066386574,0.06660363,-0.10004677,-0.05103580,0.01614842,0.04376803,-0.02425162,0.99378198,-0.08244693,0.02273341,0.07129566
1756066386586,0.24148040,0.02205996,-0.13932001,0.01985094,0.04909287,0.00443934,0.99378309,-0.08233577,0.02300833,0.07132052
1756066386597,0.02304548,0.13197696,0.03302394,0.03173797,0.04499324,0.04686563,0.99377306,-0.08215804,0.02326029,0.07158297
1756066386608,-0.09299452,0.13215582,0.04661148,0.03275985,0.02581548,0.02637852,0.99377414,-0.08197949,0.02340098,0.07172673
1756066386619,-0.13952705,-0.13470714,0.04848733,0.01695662,0.03679102,0.01596180,0.99377057,-0.08188284,0.02361069,0.07181772
1756066386630,0.05267241,-0.09698984,-0.00158388,0.00264060,0.02190276,-0.00084303,0.99376921,-0.08186805,0.02373335,0.07181300
1756066386641,-0.18842133,-0.09945395,-0.09981768,-0.00939671,0.03164455,-0.01055682,0.99376509,-0.08191833,0.02390264,0.07175652
1756066386653,-0.11678956,-0.09720830,-0.12676669,-0.00202672,0.03033906,0.00441076,0.99375821,-0.08192978,0.02407406,0.07178144
1756066386664,-0.02539072,0.07984812,-0.09306442,0.01277270,0.02224685,0.00009374,0.99376099,-0.08185953,0.02419642,0.07178195
1756066386675,0.13627720,0.11989482,0.02172366,0.02190244,0.02723209,0.02082136,0.99375893,-0.08173687,0.02434892,0.07189855
1756066386686,0.26640884,0.08962028,0.17393631,0.01021974,0.04290477,0.02017053,0.99374971,-0.08168067,0.02458489,0.07200949
1756066386697,0.01189750,-0.05204712,-0.00827217,0.00863626,0.02562539,0.02751999,0.99373875,-0.08163144,0.02473096,0.07216635
1756066386708,-0.09475271,-0.06374897,-0.16474815,0.00466666,0.03395073,-0.00464454,0.99373806,-0.08160624,0.02491429,0.07214127
1756066386719,-0.06520606,0.00853084,-0.11953544,-0.01110931,0.03786005,-0.00145917,0.99372812,-0.08166901,0.02512820,0.07213303
1756066386731,-0.07503405,-0.02144439,-0.05611420,-0.01445919,0.05277718,-0.00537241,0.99371591,-0.08175142,0.02542903,0.07210241
1756066386741,0.02364437,-0.06095019,0.11111600,0.04089782,0.06794917,-0.00615022,0.99372691,-0.08153262,0.02579256,0.07206950
1756066386752,0.12392026,0.12270570,0.04093299,-0.02032049,0.06500278,0.00939604,0.99370423,-0.08164641,0.02615658,0.07212212
1756066386764,0.03679736,0.01584383,-0.04226341,-0.02116671,0.05768535,0.00961379,0.99368182,-0.08176601,0.02648250,0.07217644
1756066386775,-0.13835390,0.05991751,-0.15579395,-0.01751677,0.08757965,0.02365218,0.99365175,-0.08186147,0.02695981,0.07230534
1756066386786,-0.23991066,0.18919637,-0.37142475,0.00289456,0.08374109,0.02175548,0.99363156,-0.08184541,0.02742457,0.07242609
1756066386797,0.05298613,0.05265180,-0.14071250,0.01137051,0.12258267,0.02495793,0.99360721,-0.08178117,0.02811716,0.07256710
1756066386808,0.03983742,-0.14535307,0.01917000,-0.00047962,0.12253925,0.02831920,0.99357630,-0.08178380,0.02879113,0.07272285
1756066386820,0.14613381,-0.10470429,-0.00332728,-0.01085702,0.12301293,0.00780839,0.99354636,-0.08184786,0.02951690,0.07276892
1756066386830,-0.15356025,-0.12233165,-0.24369226,0.02789603,0.17278498,-0.01294849,0.99353592,-0.08170001,0.03043266,0.07270030
1756066386841,-0.21407669,-0.05021038,-0.14090229,-0.01300518,0.18913964,0.01467540,0.99349172,-0.08177154,0.03147293,0.07278101
1756066386852,0.05258509,0.15861732,-0.16994713,0.03879580,0.27839248,0.11094476,0.99341468,-0.08155816,0.03300409,0.07339121
1756066386864,-0.03364143,0.46451303,-0.35557803,0.01932423,0.28926657,0.07787964,0.99333682,-0.08145091,0.03460952,0.07382344
1756066386875,0.12614164,0.91358958,-1.22368273,0.01210545,0.36189390,0.09466746,0.99323112,-0.08138373,0.03661803,0.07434884
1756066386886,-0.20540101,-0.49942938,0.08461758,-0.04718080,0.38861611,0.09749402,0.99308447,-0.08165030,0.03881371,0.07489969
1756066386897,0.53058400,0.50182355,-0.69843322,-0.02958193,0.46317434,0.04539338,0.99294938,-0.08181300,0.04136117,0.07514935
1756066386908,-0.10565970,-0.15807120,0.04023603,-0.09300005,0.56318305,0.12088799,0.99272056,-0.08232915,0.04448684,0.07582028
1756066386919,0.16738258,-0.25071104,-0.84828135,-0.08252767,0.59853770,0.14545223,0.99246603,-0.08278718,0.04780872,0.07662754
1756066386930,0.54296543,0.68084449,-0.14624581,-0.24031081,0.73266235,0.10688685,0.99210028,-0.08413292,0.05191163,0.07722610
1756066386941,0.27599422,-0.16064226,-0.97114245,-0.23620919,0.85588262,0.11299401,0.99167921,-0.08544388,0.05666178,0.07785322
1756066386953,0.04886918,0.33121754,-0.85170682,-0.29448793,0.86207193,0.20532046,0.99115709,-0.08709301,0.06148938,0.07900302
1756066386964,1.43242910,0.56714576,-0.97491331,-0.24981469,1.05616408,0.19665688,0.99057104,-0.08846699,0.06729828,0.08008463
1756066386975,-0.40688791,0.29260462,-0.98618594,-0.32930941,1.05725922,0.25592643,0.98988046,-0.09027819,0.07311321,0.08149222
1756066386986,0.57982174,-0.00311881,-0.33380312,-0.35513604,1.18907977,0.26764505,0.98905799,-0.09226696,0.07977206,0.08299104
1756066386997,0.37331527,-0.04790314,0.16169051,-0.43200518,1.29316686,0.27321112,0.98807085,-0.09472939,0.08714311,0.08454834
1756066387008,0.65017415,-0.68558737,-0.85476967,-0.42223679,1.39341996,0.17113323,0.98705833,-0.09705169,0.09480692,0.08548957
1756066387019,0.08252961,-0.29878781,-0.43576912,-0.40824711,1.44700575,0.07086745,0.98598428,-0.09933787,0.10291015,0.08588643
1756066387030,0.34689922,-0.08258338,-0.66560835,-0.39749556,1.51642792,0.05353498,0.98481860,-0.10154397,0.11132633,0.08618355
1756066387042,0.63808560,0.91092887,-0.23849598,-0.43179355,1.53359885,-0.06937273,0.98360251,-0.10394043,0.11983780,0.08579853
1756066387053,0.61168334,-0.60866497,0.44786781,-0.32812306,1.46962846,-0.01625325,0.98236539,-0.10579432,0.12814120,0.08570670
1756066387064,0.98960893,0.23313486,0.23581197,-0.29693740,1.57477344,-0.10352100,0.98108099,-0.10741263,0.13672371,0.08514251
1756066387075,0.03206051,0.53582639,0.19589960,-0.26913806,1.48105371,-0.10092724,0.97974788,-0.10894672,0.14516572,0.08456722
1756066387086,1.52142714,1.00910146,-0.33256348,-0.25476910,1.53538599,-0.12369176,0.97837392,-0.11033521,0.15353357,0.08389310
1756066387097,0.79309001,-0.13491187,-0.17353751,-0.13512089,1.46422709,-0.15723309,0.97704138,-0.11109189,0.16173325,0.08301260
1756066387108,1.79794957,0.53482326,-0.26824289,-0.19843860,1.49910267,-0.17127002,0.97559556,-0.11218330,0.16997831,0.08207061
1756066387120,0.45014325,0.40263975,0.55217651,-0.22051507,1.41432904,-0.26770245,0.97415150,-0.11342921,0.17796927,0.08055810
1756066387131,0.98220924,0.51023687,0.95156082,-0.22162393,1.43889813,-0.33102507,0.97266488,-0.11465922,0.18595515,0.07872091
1756066387142,1.03852180,0.10715387,0.24212422,-0.14481502,1.41014319,-0.40233722,0.97121916,-0.11546294,0.19378145,0.07648793
1756066387153,1.11221580,0.40241303,0.22749681,-0.12409380,1.41418036,-0.37092072,0.96968405,-0.11615787,0.20170086,0.07441078
1756066387164,2.00439337,0.62685410,-0.24055574,-0.15269979,1.44698946,-0.27585663,0.96802435,-0.11699008,0.20958695,0.07290736
1756066387175,0.45935120,-0.11357152,0.47713620,-0.10729913,1.40223659,-0.30443522,0.96636030,-0.11758559,0.21736936,0.07121774
1756066387186,0.19985788,-0.03511063,0.59647782,-0.12015991,1.34699769,-0.34087956,0.96465892,-0.11827051,0.22504725,0.06927473
1756066387198,0.73985783,0.25503006,0.69453706,-0.15425404,1.34409966,-0.28630266,0.96286326,-0.11914204,0.23264141,0.06765712
1756066387209,1.12425354,0.51478918,0.18038328,-0.17246548,1.36534339,-0.30901304,0.96101792,-0.12009060,0.24015080,0.06595755
1756066387220,0.66710405,-0.14975051,0.42979382,-0.09435972,1.38084216,-0.29546827,0.95913339,-0.12060958,0.24774544,0.06433247
1756066387231,0.42247315,0.16329679,-0.24667953,-0.10906561,1.37746290,-0.23201256,0.95711704,-0.12122035,0.25545923,0.06303320
1756066387242,0.57556333,0.22107397,0.15828175,-0.08551767,1.41920491,-0.33747445,0.95504137,-0.12169497,0.26333581,0.06116022
1756066387253,-0.73986739,-0.53239240,0.77445430,-0.03433322,1.31263374,-0.30053274,0.95303012,-0.12189067,0.27081783,0.05944718
1756066387264,2.33261274,0.53021394,0.72918288,-0.00360718,1.43406047,-0.26819152,0.95090263,-0.12190997,0.27849005,0.05801236
1756066387275,-0.75602923,0.63384927,0.58165467,0.04187238,1.36712631,-0.18605583,0.94873994,-0.12167758,0.28607760,0.05697975
1756066387287,-0.78718711,-0.34737611,0.02553802,0.12403847,1.34411983,-0.17335598,0.94650640,-0.12095815,0.29387350,0.05597428
1756066387298,1.34101108,-0.02443468,-0.51442342,0.18632761,1.47348770,-0.15557527,0.94413315,-0.11993335,0.30197768,0.05511862
1756066387309,0.73488889,-0.28076954,0.64144770,0.19361337,1.51243950,-0.19995791,0.94167704,-0.11888784,0.31014485,0.05403885
1756066387320,-0.50032085,-1.07465845,0.85564017,0.17756902,1.44740445,-0.07001887,0.93909334,-0.11788457,0.31832269,0.05364324
1756066387331,0.98379269,0.39098302,0.01041872,0.12261602,1.38491905,-0.13767047,0.93660457,-0.11721019,0.32593974,0.05288605
1756066387342,0.52856020,-0.00812791,0.63964158,0.04639719,1.34134741,-0.22969484,0.93410722,-0.11695500,0.33331715,0.05162273
1756066387354,-1.67464118,-0.73388063,0.77918608,0.07658139,1.14968076,-0.24967252,0.93181585,-0.11650700,0.34004279,0.05016215
1756066387364,3.25746430,1.08644184,-0.47632046,0.10829406,1.40578544,-0.20748352,0.92919358,-0.11593304,0.34749345,0.04906248
1756066387375,-1.88217489,-0.92717613,0.60877970,0.26438334,1.27663900,-0.07821696,0.92674086,-0.11447893,0.35451496,0.04863229
1756066387387,-0.40358093,0.50873838,-0.17684679,0.22677043,1.23713397,-0.09257004,0.92419931,-0.11318634,0.36156663,0.04810464
1756066387398,1.12751343,-0.68135455,0.31653611,0.21664656,1.25398307,-0.04350871,0.92165301,-0.11200562,0.36840083,0.04786752
1756066387409,0.20810247,-0.66980768,0.35873182,0.19598231,1.18263916,-0.11528640,0.91914459,-0.11090812,0.37502361,0.04722192
1756066387420,0.15704189,-0.47587733,0.55166608,0.21135777,1.05642112,-0.11122962,0.91688282,-0.10972451,0.38093957,0.04659903
1756066387431,0.51273008,1.01260800,0.22581444,0.10802006,1.00986896,-0.15970693,0.91465051,-0.10912500,0.38654434,0.04571266
1756066387442,0.33730322,-1.26745478,-0.01280189,0.21965394,0.98444856,-0.15926248,0.91254994,-0.10792789,0.39190959,0.04484468
1756066387453,-0.66184868,0.23855416,-0.25301400,0.23374654,0.92420945,-0.10091715,0.91047314,-0.10660722,0.39713137,0.04427449
1756066387464,0.59340254,-0.25459810,-0.15793727,0.30820344,0.90274488,-0.07013976,0.90850738,-0.10491210,0.40209647,0.04388873
1756066387475,0.12290379,0.01083721,0.44999044,0.33638707,0.91916293,-0.12754859,0.90649901,-0.10306197,0.40715187,0.04318721
1756066387487,-0.62728793,0.14222555,0.30005136,0.29864820,0.83241656,-0.02650552,0.90453530,-0.10134475,0.41193826,0.04303480
1756066387498,1.30948171,-0.01790495,0.13137438,0.29514295,0.81216431,-0.11877579,0.90269938,-0.09972146,0.41640516,0.04238153
1756066387509,0.37517026,-0.04851249,-0.00398152,0.29244024,0.73604444,-0.11695968,0.90104288,-0.09812766,0.42041661,0.04174410
1756066387520,-0.04492978,-0.88184037,-0.13325193,0.33216622,0.64916457,-0.02492222,0.89953174,-0.09625092,0.42408439,0.04160329
1756066387531,0.55135070,0.09369993,-0.18200485,0.28690886,0.58298042,-0.01809845,0.89816080,-0.09464423,0.42734908,0.04150194
1756066387542,0.54944293,-0.53944139,0.09979556,0.26144936,0.57050745,-0.07590878,0.89683093,-0.09320626,0.43048687,0.04108444
1756066387553,0.29808370,-0.69659127,0.06164180,0.22593534,0.57486833,-0.06264150,0.89542538,-0.09194102,0.43370613,0.04073365
1756066387564,0.72884751,0.08113784,0.95476493,0.18436322,0.53704877,-0.07530806,0.89412316,-0.09093624,0.43663305,0.04032322
1756066387575,0.43029314,-0.65491528,-0.54544910,0.24172533,0.55643161,-0.09379135,0.89276748,-0.08959467,0.43972124,0.03980268
1756066387586,-0.47481502,-0.27502021,0.33234633,0.25598134,0.50221188,-0.12447698,0.89156145,-0.08817397,0.44250852,0.03911183
1756066387598,0.02443011,0.60930160,-0.10667011,0.19055583,0.48380345,-0.18283221,0.89037182,-0.08711639,0.44519363,0.03809711
1756066387609,-0.21975801,-0.59952257,0.11408434,0.20478457,0.38711685,-0.09951077,0.88941133,-0.08595935,0.44738084,0.03753488
1756066387620,-0.24926682,-0.07351971,0.20025368,0.21282327,0.35157110,-0.21508009,0.88857541,-0.08475690,0.44936721,0.03631968
1756066387631,0.09796234,-0.23543499,-0.35459094,0.21342002,0.30430417,-0.19508876,0.88787522,-0.08357242,0.45105610,0.03523693
1756066387642,0.53091672,0.17524625,0.37099798,0.19875351,0.23913207,-0.17161882,0.88735963,-0.08250909,0.45233546,0.03431877
1756066387653,-1.31834962,-0.20889907,-0.01465714,0.19365539,0.23338205,-0.17799401,0.88682096,-0.08140525,0.45366574,0.03330421
1756066387664,0.66417070,0.13365909,0.18811444,0.22243320,0.21872537,-0.15574810,0.88634350,-0.08017075,0.45487966,0.03243981
1756066387675,-0.04482220,0.42359638,-0.68210950,0.23441286,0.16709904,-0.16466527,0.88601967,-0.07888148,0.45579871,0.03153415
1756066387687,-0.70230948,-0.76190182,-0.59800697,0.29732423,0.17486909,-0.14207515,0.88568696,-0.07720160,0.45678672,0.03073142
1756066387698,-0.28097838,0.18047701,0.01506790,0.28050992,0.14352403,-0.15792259,0.88544230,-0.07565879,0.45757610,0.02986285
1756066387709,-0.23324628,-0.32954965,0.07191965,0.28404060,0.10005420,-0.17267674,0.88532137,-0.07409657,0.45812640,0.02891313
1756066387720,-1.60195037,0.04993515,0.19567409,0.19715249,0.04504651,-0.18802075,0.88531610,-0.07296294,0.45838541,0.02783201
1756066387731,2.29524296,-0.42011420,-0.79161475,0.20449353,0.06658661,-0.11173246,0.88523966,-0.07186890,0.45874165,0.02723424
1756066387742,-1.00880186,-0.35189127,-0.32211162,0.20515258,-0.00142914,-0.13505966,0.88535609,-0.07075082,0.45873386,0.02649816
1756066387753,-1.64069328,-0.15736759,-0.13469217,0.13440174,-0.02887868,-0.15684040,0.88553005,-0.06997801,0.45856781,0.02559633
1756066387764,0.07995578,-0.27576269,0.50489256,0.08494602,-0.06940478,-0.13346458,0.88578763,-0.06950656,0.45818262,0.02485560
1756066387776,-0.52877765,-0.18060904,0.37508855,0.08204033,-0.07981018,-0.20129825,0.88608020,-0.06905534,0.45774366,0.02374846
1756066387787,-0.85486859,-0.00928731,-0.56508300,0.05828601,-0.10382855,-0.14379779,0.88642690,-0.06872894,0.45716222,0.02294319
1756066387798,-0.00047516,-0.89140875,-0.97242431,0.06537637,-0.13283398,-0.12737877,0.88685661,-0.06836283,0.45641835,0.02222987
1756066387809,-0.16621522,-0.31264989,0.18659150,0.03358145,-0.13783625,-0.16653846,0.88727917,-0.06817981,0.45566714,0.02132224
1756066387820,-1.23233400,-0.05843221,-0.06028781,-0.04820376,-0.15862238,-0.18010648,0.88774584,-0.06845457,0.45476299,0.02029563
1756066387831,-0.45856766,-0.36070722,-0.20901217,-0.04044618,-0.18700282,-0.30868020,0.88830679,-0.06868309,0.45370643,0.01855159
1756066387842,1.05776147,-0.24297356,-0.03823675,-0.08198365,-0.21065534,-0.15050216,0.88885876,-0.06911760,0.45258995,0.01775393
1756066387854,-2.82048896,0.07223905,0.42673053,-0.05860847,-0.20122048,-0.16737057,0.88945448,-0.06946339,0.45140275,0.01676644
1756066387865,-0.00818488,-0.37388885,0.12541490,-0.04653365,-0.19382840,-0.21836381,0.88998669,-0.06971468,0.45035608,0.01558728
1756066387876,-1.25708559,0.14535724,0.02618028,-0.05664965,-0.15357517,-0.13388179,0.89039798,-0.07002342,0.44951910,0.01485762
1756066387887,-1.67050196,0.06210553,0.55290330,-0.05795390,-0.14384005,-0.12364226,0.89079687,-0.07035375,0.44869921,0.01415286
1756066387898,0.09019028,0.03982147,-0.40800458,-0.04971018,-0.14607150,-0.15049445,0.89119581,-0.07062965,0.44788851,0.01331761
1756066387909,-0.43590855,0.30816201,-0.14266952,-0.08246508,-0.14249548,-0.09911463,0.89155456,-0.07107496,0.44711904,0.01278240
1756066387921,-2.00363916,0.18275127,0.04268265,-0.04711689,-0.14103732,-0.11892088,0.89194871,-0.07134588,0.44630807,0.01209860
1756066387931,-0.29695235,0.02501553,-0.46203773,-0.04732576,-0.10740877,-0.18307697,0.89223629,-0.07160617,0.44571732,0.01109168
1756066387943,-1.42201756,0.39595402,0.28710242,-0.08034711,-0.11011234,-0.12712078,0.89251891,-0.07206013,0.44509519,0.01037344
1756066387954,-0.77475340,-0.15705441,0.31945378,-0.03959614,-0.07604438,-0.15211916,0.89272090,-0.07227989,0.44467314,0.00952918
1756066387965,-1.68852944,0.29792819,0.92663086,-0.02628997,-0.06939661,-0.13625930,0.89291026,-0.07242711,0.44428452,0.00876613
1756066387976,-1.48782384,0.23778458,0.18191543,-0.00488375,-0.02577477,-0.10513607,0.89298610,-0.07245471,0.44413889,0.00817211
1756066387987,-0.52753804,0.30994567,-0.02495149,0.00796444,-0.00352911,-0.03684788,0.89300087,-0.07241170,0.44411984,0.00797313
1756066387998,-1.02034636,0.23801195,-0.52416613,0.02528417,-0.04178527,-0.07787305,0.89313363,-0.07226884,0.44388375,0.00753315
1756066388009,-0.46515899,-0.07790110,-0.48270510,0.02628734,-0.02250305,-0.11461673,0.89321262,-0.07212295,0.44375886,0.00689703
1756066388021,-1.02733793,0.16997408,0.39302960,0.01578286,-0.01420248,-0.11089912,0.89326384,-0.07203457,0.44367932,0.00627599
1756066388031,-0.81276758,0.09963872,0.10579075,0.00402773,-0.01221151,-0.14514426,0.89330314,-0.07201302,0.44361399,0.00549947
1756066388042,-0.78117288,0.03716789,0.13176991,0.02194890,0.00905093,-0.08439362,0.89329111,-0.07189449,0.44366287,0.00504375
1756066388054,-0.70082772,0.09567107,0.08982236,0.04724541,0.02030278,-0.08381143,0.89325724,-0.07162047,0.44378062,0.00455764
1756066388065,-2.38983206,0.08681585,0.43981397,0.09118339,0.00212221,-0.12378181,0.89329540,-0.07110984,0.44379251,0.00386446
1756066388076,1.07890947,-0.13681154,-0.06830394,0.10546114,0.01913427,-0.11039545,0.89329167,-0.07055090,0.44389392,0.00327937
1756066388087,-2.11307685,0.15501977,0.23110615,0.08713908,-0.00547932,-0.03763270,0.89334704,-0.07005421,0.44386269,0.00306486
1756066388098,1.18557990,-0.17009420,-0.20500164,0.07136983,0.00281385,-0.01106642,0.89337046,-0.06965810,0.44387830,0.00300344
1756066388109,0.01311826,-0.37495862,0.17100069,0.03248684,0.00187186,0.00001488,0.89337918,-0.06948105,0.44388851,0.00300352
1756066388121,-0.16121495,-0.32649781,0.13537496,0.01472051,0.01462697,-0.04400888,0.89334448,-0.06939567,0.44397334,0.00274827
1756066388131,-0.24865225,-0.33461710,0.07640537,-0.00046108,0.03507390,-0.07113721,0.89325123,-0.06939816,0.44416274,0.00236413
1756066388142,-0.09535849,-0.12406195,0.00199745,-0.03366990,0.00813150,-0.01279992,0.89321411,-0.06958671,0.44420828,0.00229245
1756066388154,0.07171108,-0.29681801,0.07421406,-0.03543949,0.01501262,-0.00501852,0.89315535,-0.06979049,0.44429460,0.00226359
1756066388165,-0.05113214,-0.50730355,0.52589190,-0.05977927,-0.00540409,-0.03097480,0.89314489,-0.07011629,0.44426515,0.00209478
1756066388176,-0.38403632,-0.28395109,0.10535288,-0.12141117,-0.03983873,-0.03774934,0.89320113,-0.07077798,0.44404803,0.00188905
1756066388188,0.23526579,0.35168713,-0.11611628,-0.11773185,-0.01847185,-0.09480446,0.89320100,-0.07147848,0.44393812,0.00132496
1756066388199,0.28170814,-0.09214351,-0.40781045,-0.07671594,-0.01684462,-0.03817131,0.89321323,-0.07189275,0.44384716,0.00111884
1756066388209,-0.33951247,0.76391571,0.10562117,-0.07402763,-0.04431019,-0.00140185,0.89329904,-0.07228880,0.44361010,0.00111134
1756066388221,0.14530758,0.12439862,-0.61529373,-0.01536235,-0.01288503,-0.02836325,0.89332886,-0.07237713,0.44353601,0.00094825
1756066388232,-0.40303277,-0.03211540,0.08621577,0.02156109,-0.05199900,0.00809160,0.89348035,-0.07225854,0.44325001,0.00099275
1756066388243,0.39493228,0.19598846,-0.15480249,0.01756452,-0.03261049,-0.04080977,0.89357822,-0.07216106,0.44306903,0.00076626
1756066388254,0.00552845,0.34395400,0.10051618,-0.03025589,-0.06173266,0.00968749,0.89373862,-0.07233352,0.44271715,0.00082147
1756066388265,-1.19585837,0.16008374,0.23037689,-0.03744317,-0.03781902,-0.03796066,0.89382196,-0.07253197,0.44251671,0.00062028
1756066388276,-0.11923045,0.22372631,-0.26836937,-0.03772085,-0.02270441,-0.03066510,0.89386783,-0.07274320,0.44238956,0.00044856
1756066388287,0.09930940,0.15466607,-0.16274387,-0.03160231,-0.02650327,-0.02548566,0.89392691,-0.07292018,0.44224115,0.00030584
1756066388299,0.95158009,-0.44137665,0.04433063,0.00261271,-0.02635409,-0.04171930,0.89400181,-0.07290542,0.44209225,0.00007013
1756066388310,0.13913999,0.41307375,-0.15461985,-0.01709228,-0.03598797,-0.03057205,0.89409199,-0.07299942,0.44189431,-0.00009802
1756066388321,0.25878771,0.16021846,0.00120062,-0.01374357,-0.03996346,-0.02248214,0.89419533,-0.07307570,0.44167251,-0.00022280
1756066388332,0.23047950,-0.04251800,0.07091451,-0.00692227,-0.03779667,-0.03342538,0.89429751,-0.07311481,0.44145896,-0.00041165
1756066388342,0.04268120,0.02346007,0.12925404,0.00968796,-0.02263606,-0.05114193,0.89436016,-0.07306395,0.44134012,-0.00068015
1756066388354,0.05952841,0.14246212,-0.00304134,0.00144254,-0.05363560,-0.04163487,0.89451672,-0.07305544,0.44102367,-0.00092579
1756066388365,-0.45209868,-0.30525990,-0.05605159,-0.03186664,-0.06169046,-0.05349504,0.89466232,-0.07322274,0.44069980,-0.00120664
1756066388376,0.10618662,-0.16423582,-0.02857428,-0.02957328,-0.08650056,-0.05579553,0.89488072,-0.07338391,0.44022837,-0.00151073
1756066388387,0.32792323,0.10792533,0.06510294,-0.04628826,-0.10983296,-0.05605166,0.89516866,-0.07365007,0.43959683,-0.00183302
1756066388398,0.83673383,0.36790341,-0.02872680,-0.00607383,-0.09212009,-0.02806594,0.89541868,-0.07368408,0.43908096,-0.00199019
1756066388410,0.31381857,0.18399255,0.15326053,-0.00626344,-0.11165061,-0.00921315,0.89571929,-0.07371885,0.43846130,-0.00204133
1756066388420,0.12195353,-0.09681301,-0.00861670,0.01125009,-0.12179138,-0.03625205,0.89604848,-0.07365753,0.43779754,-0.00223890
1756066388431,0.16414665,-0.28521109,-0.04679929,0.01937316,-0.13595971,-0.03577330,0.89642168,-0.07355098,0.43704976,-0.00243565
1756066388442,0.11668184,-0.19990475,0.00791395,-0.01806028,-0.15316080,-0.05972922,0.89682643,-0.07365121,0.43619971,-0.00276715
1756066388454,0.07043198,-0.08508362,0.00923475,-0.02069527,-0.17181995,-0.07756319,0.89729096,-0.07376918,0.43522034,-0.00320926
1756066388465,-0.70364788,0.43893536,-0.02094059,-0.02079868,-0.16200374,-0.05872518,0.89771961,-0.07388565,0.43431312,-0.00353812
1756066388476,-0.12831008,0.10271377,0.04920332,0.00430686,-0.17631686,-0.05055969,0.89818042,-0.07386239,0.43336101,-0.00381114
1756066388487,0.04509471,0.11361940,-0.05531885,0.00165369,-0.18894226,-0.04774578,0.89870336,-0.07385288,0.43227459,-0.00408568
1756066388498,0.94360406,-0.48308330,-0.05173633,-0.01283721,-0.19294327,-0.02886191,0.89920192,-0.07392285,0.43122305,-0.00424298
1756066388509,0.08120196,-0.03227357,0.04903154,-0.02241782,-0.21985337,-0.05331910,0.89975894,-0.07404390,0.43003584,-0.00453090
1756066388521,-0.19466541,0.02329025,-0.07999780,-0.01840653,-0.20200995,-0.05334231,0.90031704,-0.07415250,0.42884398,-0.00484562
1756066388532,0.01964421,-0.03856485,-0.11542101,-0.01340886,-0.20297620,-0.05288301,0.90082601,-0.07422424,0.42775806,-0.00512855
1756066388543,-0.35793402,0.04010550,0.05219262,0.01008353,-0.20699430,-0.10696565,0.90136676,-0.07416878,0.42661959,-0.00571686
1756066388554,-0.18325839,0.11979394,-0.05791878,0.02822384,-0.19554220,-0.04093206,0.90191931,-0.07400367,0.42547567,-0.00595631
1756066388565,-0.30444786,-0.27868434,0.55683695,0.05367331,-0.22080971,-0.06290892,0.90249686,-0.07371652,0.42429434,-0.00629287
1756066388576,-0.16631017,0.16287808,0.00245610,0.05294139,-0.23009120,-0.07099830,0.90311165,-0.07342534,0.42302884,-0.00668336
1756066388587,-0.00796914,0.10135555,-0.09228016,0.04073318,-0.22951374,-0.04715270,0.90374560,-0.07319112,0.42170913,-0.00695449
1756066388598,0.11182237,0.41412188,-0.40504801,0.02424953,-0.25478081,-0.05100813,0.90440074,-0.07305896,0.42032058,-0.00723248
1756066388609,-0.12241001,-0.01354537,-0.11187472,0.05005655,-0.25615077,-0.10091835,0.90506565,-0.07278616,0.41892456,-0.00778249
1756066388621,-0.13734260,0.05479480,-0.13831842,0.02112031,-0.25087124,-0.05998175,0.90573866,-0.07266471,0.41748205,-0.00812738
1756066388632,0.03957380,-0.16994875,-0.23932618,0.06764094,-0.23836700,-0.01038494,0.90638825,-0.07228254,0.41613527,-0.00818606
1756066388643,-0.02637604,0.09159282,-0.09492610,0.05627613,-0.28575085,-0.03691188,0.90711070,-0.07198147,0.41460651,-0.00838354
1756066388654,0.00897304,-0.01326602,-0.03484271,0.03731637,-0.26552525,-0.03688409,0.90782816,-0.07176503,0.41306646,-0.00859747
1756066388665,-1.32454999,0.12616992,-0.14488230,0.07544108,-0.29832993,-0.03699959,0.90856851,-0.07136897,0.41150023,-0.00879171
1756066388676,-0.06702214,-0.17298733,0.08608247,0.04967121,-0.29756399,-0.04792755,0.90933366,-0.07109329,0.40984875,-0.00905771
1756066388688,0.06221587,-0.14136198,0.17235718,0.05816516,-0.28019550,-0.01525907,0.91008979,-0.07075593,0.40822361,-0.00914621
1756066388699,1.11750590,-0.37167289,0.04954187,0.02560789,-0.27592135,-0.04494280,0.91082728,-0.07060485,0.40659568,-0.00941138
1756066388711,0.07098882,-0.19804389,0.03320350,0.03662125,-0.26869466,-0.05435386,0.91155273,-0.07038695,0.40499694,-0.00973478
1756066388722,-0.00430401,-0.40352529,0.10296869,0.01327749,-0.30334238,-0.07778283,0.91226627,-0.07031658,0.40338923,-0.01014703
1756066388731,0.10197543,-0.69586076,0.01067932,-0.00581091,-0.34762763,-0.09419440,0.91292684,-0.07034186,0.40187705,-0.01055678
1756066388742,0.02234906,0.22319780,0.23646309,-0.00874886,-0.26930929,-0.07763586,0.91360944,-0.07039304,0.40030159,-0.01101095
1756066388752,0.07026725,-0.13864703,0.02557141,0.00341963,-0.24533796,-0.07234328,0.91414283,-0.07037594,0.39907490,-0.01137266
1756066388764,-0.14665226,-0.17579231,0.38113859,-0.00009346,-0.21169956,-0.02413291,0.91469444,-0.07037650,0.39780470,-0.01151746
1756066388771,-0.65025007,-2.89994729,1.01631247,0.04586334,-0.42472058,-0.05674629,0.91533064,-0.07022056,0.39636065,-0.01171040
1756066388793,0.19972900,1.20325434,-0.30342360,0.00097814,-0.13590191,-0.00374769,0.91598268,-0.07020971,0.39485214,-0.01175200
1756066388801,0.45130807,-6.80518943,1.10408960,-0.10905586,-0.72393079,-0.10168256,0.91714177,-0.07062957,0.39206501,-0.01214348
1756066388812,-0.05987969,3.59553961,-0.79743801,-0.05306268,-0.29140857,-0.08468212,0.91781429,-0.07092938,0.39041855,-0.01262193
1756066388824,0.08590779,0.60867267,0.28251652,-0.09780935,-0.27206436,-0.03558151,0.91846920,-0.07152601,0.38875896,-0.01283898
1756066388842,-0.13834056,0.34850029,-0.10639583,-0.04112101,-0.17798592,-0.03905425,0.91909036,-0.07188377,0.38721048,-0.01317875
1756066388847,0.08611331,-3.83813906,1.43729363,-0.09661771,-0.49477808,-0.04691305,0.91965968,-0.07215913,0.38580036,-0.01331245
1756066388857,-0.15131946,1.51967456,-0.82667272,-0.05176023,-0.33131255,-0.02002737,0.92027749,-0.07239722,0.38427632,-0.01340458
1756066388873,-0.59146636,1.38911184,-0.00350358,-0.00664838,-0.18812637,-0.00856389,0.92089155,-0.07244975,0.38279013,-0.01347223
1756066388879,-0.27911635,-2.51028817,1.03827979,-0.03659437,-0.44465284,0.00600492,0.92148185,-0.07256868,0.38134500,-0.01345272
1756066388890,0.19606055,0.95183431,-0.15521605,-0.04378089,-0.25559388,0.00479006,0.92203866,-0.07280728,0.37995202,-0.01342661
1756066388901,0.17382692,-0.24997887,0.13694290,-0.05015127,-0.21789021,-0.04650472,0.92250601,-0.07308312,0.37875362,-0.01368239
1756066388913,-0.11574453,0.21227517,-0.01053321,-0.05434729,-0.18378581,-0.00096349,0.92292139,-0.07340105,0.37767847,-0.01368802
1756066388924,-0.15788860,0.21883151,0.15052676,-0.01617185,-0.18160833,0.01241483,0.92334534,-0.07349484,0.37662515,-0.01361602
1756066388936,-0.20327006,0.25093901,0.29081208,-0.02326543,-0.14219999,0.01774672,0.92366927,-0.07362862,0.37580750,-0.01351397
1756066388947,-0.25269459,0.07382405,0.14282621,-0.04097535,-0.11420260,0.00902111,0.92391164,-0.07385808,0.37516796,-0.01346345
1756066388959,-0.90483971,0.02479950,0.49693475,-0.05334800,-0.10262952,-0.02291096,0.92412825,-0.07417017,0.37456758,-0.01359748
1756066388970,0.10704402,-1.03800718,0.19172688,-0.03039613,-0.11899435,-0.04867451,0.92438034,-0.07434039,0.37390121,-0.01387006
1756066388982,0.14965295,0.39556079,-0.20072721,-0.03981188,-0.11225690,-0.04235533,0.92462527,-0.07457528,0.37323889,-0.01411996
1756066388992,-0.01568985,1.05867760,0.19790524,-0.01486410,-0.10627772,-0.02934496,0.92484781,-0.07465554,0.37266499,-0.01427842
1756066389004,0.18759584,-0.04748181,-0.38391855,0.03037946,-0.08512790,-0.01347302,0.92505596,-0.07448238,0.37217977,-0.01435522
1756066389015,-0.07159717,0.03787368,0.18698141,0.03428854,-0.03360865,0.02170684,0.92514815,-0.07429208,0.37199324,-0.01423474
1756066389026,-0.27073924,0.06156816,-0.01928145,0.02191740,-0.06240850,-0.00328396,0.92529950,-0.07416824,0.37164063,-0.01425330
1756066389037,-0.09349501,-0.23223701,0.22547072,-0.00648440,-0.06222373,-0.01874563,0.92543363,-0.07420423,0.37129529,-0.01435734
1756066389049,0.22086386,0.14287660,-0.08356534,-0.02338161,-0.05583702,-0.05501704,0.92554860,-0.07434102,0.37096864,-0.01467918
1756066389060,-0.69999848,0.81000798,0.27104247,-0.00372779,-0.05968751,-0.03059572,0.92567462,-0.07436133,0.37064334,-0.01484593
1756066389071,0.01020304,0.18039362,0.02067374,0.04554273,-0.05020176,0.00206495,0.92580896,-0.07410402,0.37035970,-0.01483426
1756066389083,-0.58302296,0.10759551,0.04201126,0.05976247,-0.06799473,-0.00905979,0.92598869,-0.07376636,0.36997553,-0.01488545
1756066389094,0.58056683,-0.29584992,0.10641966,0.06066908,-0.01850971,-0.01311367,0.92605532,-0.07342964,0.36987280,-0.01495823
1756066389105,0.42280824,-0.24012864,0.24532432,0.07803318,0.01168449,-0.02826462,0.92606121,-0.07298876,0.36993882,-0.01511793
1756066389116,-0.07665146,0.25470057,0.26366025,0.06717516,0.01460433,-0.02010990,0.92605617,-0.07260586,0.37002207,-0.01523255
1756066389127,-0.33722382,0.37382889,-0.15134024,0.09206384,0.02475821,-0.04620379,0.92603727,-0.07210411,0.37015700,-0.01548437
1756066389139,0.28826475,-0.20745813,-0.35979971,0.11210622,0.04801342,-0.03192803,0.92597431,-0.07146510,0.37043068,-0.01566636
1756066389150,0.17759972,0.43870816,0.48450703,0.09101013,0.05103015,-0.02452420,0.92589819,-0.07096455,0.37071134,-0.01580124
1756066389161,-0.60278083,-0.57518240,0.29654157,0.12238103,0.05336776,-0.06702963,0.92582427,-0.07027922,0.37101020,-0.01617660
1756066389172,-0.33357518,0.07725117,-0.16688369,0.13979553,0.04917189,-0.07192666,0.92576638,-0.06950335,0.37128310,-0.01657580
1756066389183,0.28101077,-0.13408700,-0.16073828,0.14390626,0.06825294,-0.02230386,0.92567005,-0.06869028,0.37166873,-0.01670181
1756066389194,0.75551383,0.49568021,-0.09624016,0.15551777,0.07418701,-0.04022809,0.92556519,-0.06783493,0.37207676,-0.01692307
1756066389205,0.14512060,0.12082902,0.14435538,0.13224925,0.07284343,-0.05144030,0.92545081,-0.06710095,0.37248104,-0.01720856
1756066389217,0.29961628,-0.13838497,-0.34171740,0.12954022,0.07415010,-0.05433473,0.92532586,-0.06634962,0.37291111,-0.01752370
1756066389228,-0.20692617,0.10736865,0.14715621,0.13608030,0.05125807,-0.04536209,0.92526021,-0.06559437,0.37319560,-0.01777546
1756066389239,0.36316461,0.40138271,-0.04176150,0.15009011,0.05584843,-0.06453367,0.92518820,-0.06477638,0.37349997,-0.01812717
1756066389250,0.16974520,-0.02684695,-0.07630119,0.17133141,0.04847088,-0.03669746,0.92514078,-0.06380836,0.37377383,-0.01833451
1756066389261,-0.53808090,0.01593976,-0.28078003,0.21010032,0.04924158,-0.05570405,0.92510418,-0.06265280,0.37404466,-0.01864088
1756066389272,0.30084005,-0.05026975,-0.38482820,0.20196459,0.02553279,0.01092217,0.92512332,-0.06153190,0.37418637,-0.01858027
1756066389283,0.12414638,-0.30385705,-0.11110290,0.22042788,0.01048991,-0.01161638,0.92517953,-0.06029750,0.37424511,-0.01864532
1756066389295,0.59216722,0.62217186,0.29874453,0.16320078,0.00698515,-0.03298747,0.92521838,-0.05939990,0.37428353,-0.01882675
1756066389306,0.29992646,-0.35651224,0.23328557,0.18152462,-0.04245467,0.00835041,0.92538160,-0.05837429,0.37404366,-0.01877957
1756066389317,0.19581916,0.35499516,-0.11366380,0.16832416,-0.07683528,-0.02336087,0.92561376,-0.05742325,0.37360954,-0.01891156
1756066389328,0.29073970,0.06750808,-0.10395738,0.21761018,-0.12269213,0.00379015,0.92595346,-0.05624816,0.37294700,-0.01889109
1756066389339,0.07134375,0.16205223,-0.75848597,0.24169305,-0.16552157,-0.04061856,0.92641078,-0.05487051,0.37200353,-0.01912262
1756066389350,0.28626366,-0.30942677,-0.29267329,0.27359170,-0.23220431,0.05802180,0.92701148,-0.05337943,0.37073802,-0.01880640
1756066389361,0.45255519,0.09226812,0.01110662,0.24265363,-0.22742269,-0.03347116,0.92758801,-0.05203271,0.36947582,-0.01899216
1756066389373,0.07641374,0.16910936,0.05893111,0.21119185,-0.28391747,0.01660860,0.92828717,-0.05085003,0.36788588,-0.01889916
1756066389384,0.74553966,0.89969646,-0.46316364,0.19959506,-0.38341924,0.00404984,0.92918810,-0.04974228,0.36575791,-0.01887668
1756066389395,0.15722352,0.83376841,-0.51254867,0.28566343,-0.50854820,-0.08845768,0.93036749,-0.04815685,0.36293546,-0.01936762
1756066389406,1.09328947,0.12387435,-1.14799453,0.34708217,-0.55693322,-0.00454392,0.93168765,-0.04619583,0.35978879,-0.01939329
1756066389417,0.28170885,-0.23829721,-0.59796029,0.34143199,-0.68015500,0.04982281,0.93326186,-0.04426674,0.35594591,-0.01911179
1756066389428,1.65052842,0.25464053,-0.17922198,0.30753499,-0.74567629,0.02219383,0.93488205,-0.04259068,0.35188198,-0.01899084
1756066389439,-0.22715264,-0.21650939,-0.38968727,0.26911270,-0.84011516,0.07236833,0.93671480,-0.04108365,0.34717733,-0.01858557
1756066389451,1.21594616,-0.29198863,-0.92657093,0.27236409,-0.88205480,0.03918886,0.93860060,-0.03955841,0.34223783,-0.01836612
1756066389461,-0.06231363,0.49289424,-0.54913396,0.31234331,-1.05579903,-0.02689637,0.94074593,-0.03785614,0.33648372,-0.01851270
1756066389473,0.44030101,0.45566975,-0.56463066,0.30330226,-1.16739182,0.00163232,0.94312548,-0.03615764,0.32994633,-0.01850356
1756066389484,1.09616107,-0.49993623,-0.76233969,0.28611047,-1.19400065,0.09149826,0.94548692,-0.03456973,0.32331962,-0.01799575
1756066389495,1.46774200,-0.88649875,-0.44796608,0.34720253,-1.15503130,0.01107690,0.94772431,-0.03264276,0.31690920,-0.01793427
1756066389506,-1.69640604,-0.13863034,0.94504884,0.39626865,-1.34051808,0.03774710,0.95027918,-0.03042365,0.30940230,-0.01772288
1756066389517,1.81686204,1.11579703,-0.32949458,0.30658556,-1.24244891,0.02128248,0.95259214,-0.02869144,0.30238246,-0.01760264
1756066389528,0.20571469,-1.08181387,-0.49434476,0.38205588,-1.31160948,0.05637630,0.95487682,-0.02662834,0.29529977,-0.01729821
1756066389539,-0.04763965,-0.12392116,0.00657311,0.38181785,-1.26987577,0.03770950,0.95710797,-0.02449016,0.28818847,-0.01708703
1756066389551,-0.12187971,0.12615620,-0.01900658,0.41480787,-1.32462388,-0.05052318,0.95936165,-0.02216724,0.28077057,-0.01736996
1756066389562,0.44712165,-0.32424759,-0.17491332,0.44312392,-1.35670177,0.03864593,0.96159072,-0.01970790,0.27324088,-0.01715548
1756066389573,0.39091833,0.54319176,0.39983174,0.35693652,-1.43241851,0.16889749,0.96384881,-0.01774475,0.26536258,-0.01622654
1756066389584,-0.01876787,-1.14324586,0.48277075,0.38536116,-1.41625158,0.09244776,0.96602384,-0.01560599,0.25750238,-0.01571346
1756066389595,0.11441034,-0.06724329,0.37854585,0.31363521,-1.39471098,0.05236868,0.96808521,-0.01386532,0.24976174,-0.01542281
1756066389606,-0.42601901,-0.59999988,0.18756199,0.33555447,-1.35314021,0.00257877,0.97005099,-0.01196944,0.24211649,-0.01540824
1756066389617,0.26873127,0.01045874,-0.01581868,0.30932270,-1.35166588,0.03154997,0.97191499,-0.01025270,0.23461475,-0.01523314
1756066389629,-0.43225341,0.09708849,0.43098340,0.25887255,-1.27604015,-0.04590879,0.97363732,-0.00879007,0.22740512,-0.01549252
1756066389640,0.53492913,-0.04998150,0.65741443,0.26432977,-1.27678553,0.01761946,0.97526436,-0.00733625,0.22038280,-0.01539562
1756066389651,-0.26011147,-0.46026470,0.36782607,0.30285567,-1.23971158,0.05105082,0.97680928,-0.00565540,0.21350240,-0.01511228
1756066389662,-0.69247532,0.55292462,0.47373480,0.23384177,-1.16646758,0.16441967,0.97823466,-0.00434589,0.20697018,-0.01419153
1756066389673,-0.98430343,-0.35067146,0.01259186,0.27456858,-1.12405129,0.13777025,0.97956182,-0.00280831,0.20067550,-0.01342002
1756066389684,0.00254217,-0.02817498,0.30013877,0.25251304,-1.04884233,0.14277217,0.98073934,-0.00141948,0.19490686,-0.01263477
1756066389695,-0.48394718,-0.25887787,0.61283968,0.16102761,-1.02386435,0.17694769,0.98186458,-0.00052578,0.18922442,-0.01165271
1756066389707,0.12447694,-0.31505358,0.40851045,0.13248887,-0.90687555,0.12450076,0.98285496,0.00022941,0.18405522,-0.01094306
1756066389718,-0.42832466,-0.56174159,0.14859247,0.11742635,-0.90032528,0.18157403,0.98377960,0.00087525,0.17910344,-0.00994440
1756066389729,-1.35026654,-0.04435013,0.13622537,0.08147535,-0.81643324,0.07751007,0.98460478,0.00133151,0.17453141,-0.00951035
1756066389740,0.09051885,0.21524955,0.31788510,0.02450147,-0.67519376,0.09953282,0.98527256,0.00146872,0.17075032,-0.00895296
1756066389751,-1.12320801,-0.49887663,0.17604306,0.09777715,-0.66986649,0.11445191,0.98590853,0.00200650,0.16706606,-0.00832348
1756066389762,-0.51525999,-0.31797354,0.46304435,0.04853302,-0.55907689,0.19467025,0.98643253,0.00227343,0.16399114,-0.00725279
1756066389773,-0.68958940,-0.28738674,0.10458682,0.08152498,-0.47838515,0.16830648,0.98688343,0.00273404,0.16128826,-0.00630186
1756066389784,-1.03370021,-0.08939372,-0.10210859,0.16459768,-0.46000836,0.10805659,0.98729799,0.00364756,0.15873521,-0.00570214
1756066389795,0.05965790,0.19898170,-0.05883468,0.09394670,-0.41976622,0.18383777,0.98766968,0.00416427,0.15642650,-0.00469104
1756066389807,-0.10765492,-0.22095165,0.36482962,0.05456972,-0.34536159,0.11503912,0.98797828,0.00447259,0.15447521,-0.00404107
1756066389818,-0.61808856,-0.13504312,0.30708782,0.02935980,-0.35043293,0.07766712,0.98828133,0.00463553,0.15253030,-0.00361001
1756066389830,-0.44866305,-0.59068244,-0.11249212,0.00465454,-0.26917615,0.04057742,0.98852585,0.00466300,0.15094216,-0.00337061
1756066389840,-0.21763569,-0.27403780,0.20775604,-0.03122761,-0.22851731,-0.03737334,0.98870491,0.00450217,0.14976530,-0.00356308
1756066389851,-0.41343327,0.21196407,-0.00546936,-0.01997765,-0.20957839,-0.04876482,0.98887988,0.00439130,0.14860214,-0.00383372
1756066389862,-1.03482070,0.20387985,0.44291332,-0.03197264,-0.17800758,-0.03361962,0.98902920,0.00421225,0.14760530,-0.00402199
1756066389873,-1.09269917,0.63494938,0.13084341,-0.06351893,-0.20826733,-0.01183846,0.98920529,0.00385337,0.14642859,-0.00408888
1756066389885,0.07772083,-0.01937186,0.08705667,0.05155537,-0.10840289,-0.05607398,0.98929322,0.00414466,0.14581611,-0.00440570
1756066389896,0.37157936,0.39789883,0.22185007,0.05649542,-0.11169481,-0.03738055,0.98937969,0.00444973,0.14521296,-0.00460755
1756066389907,0.50307494,0.05228690,0.19614642,0.06013864,-0.11252041,0.02383344,0.98947019,0.00478350,0.14458847,-0.00447528
1756066389918,-0.11924638,-0.00383947,0.09545892,0.08126262,-0.14165445,0.01668258,0.98958491,0.00524263,0.14378812,-0.00438102
1756066389929,-0.19625769,-0.14276803,0.30306459,0.03480692,-0.14651384,-0.02587170,0.98970208,0.00543755,0.14296765,-0.00452590
1756066389940,-0.06128101,0.09085769,0.04714389,0.00024564,-0.16382703,-0.08924167,0.98983290,0.00543894,0.14204202,-0.00503012
1756066389952,-0.28772439,0.09247611,0.26040881,-0.01274926,-0.18018751,-0.18637414,0.98997049,0.00536818,0.14104198,-0.00606450
1756066389963,-0.18902984,0.23043934,0.00036834,0.00342030,-0.16654963,-0.21457178,0.99009253,0.00538699,0.14012596,-0.00724464
1756066389974,-0.23641598,0.84265254,-0.47516890,-0.01116679,-0.17384017,-0.16981514,0.99022274,0.00532446,0.13915245,-0.00819561
1756066389985,-0.16243170,0.13219023,0.08638372,0.04874105,-0.14826557,-0.12859938,0.99033326,0.00560228,0.13830734,-0.00892862
1756066389996,-0.07259085,0.41514313,0.57987968,0.10767393,-0.16066008,-0.16345579,0.99044123,0.00617834,0.13744781,-0.00980311
1756066390007,0.37762366,-0.32638781,0.30046123,0.12829453,-0.15436589,-0.13191431,0.99054943,0.00690320,0.13657564,-0.01054843
1756066390018,-0.00801021,0.36651647,0.68951846,0.08628153,-0.15519712,-0.11630287,0.99065631,0.00737775,0.13572206,-0.01118809
1756066390030,0.25753116,0.04185425,0.04554615,0.08346743,-0.18206194,-0.08000946,0.99078786,0.00784934,0.13469341,-0.01164015
1756066390040,-0.25673160,0.14370923,-0.13360237,0.10047934,-0.20721827,-0.13106691,0.99092759,0.00839696,0.13356407,-0.01235446
1756066390052,-0.08821294,0.14985516,-0.18457761,0.10485135,-0.20731700,-0.14504761,0.99106902,0.00898937,0.13239273,-0.01317398
1756066390063,0.14276173,0.12340403,0.26263776,0.14787889,-0.18020863,-0.13763459,0.99118491,0.00981749,0.13138356,-0.01394473
1756066390074,-0.30885698,-0.51412807,0.27369480,0.15585066,-0.20419414,-0.06644351,0.99132148,0.01069025,0.13024007,-0.01431682
1756066390085,-0.53367666,0.04057144,0.11504313,0.18315425,-0.22265010,-0.10142557,0.99146327,0.01170676,0.12900436,-0.01487973
1756066390096,0.66643283,-0.01865890,0.16351891,0.13794503,-0.20368196,-0.08954099,0.99159163,0.01246546,0.12788411,-0.01537220
1756066390107,0.18374042,0.69140746,0.02904127,0.16152769,-0.22417162,-0.17696736,0.99172391,0.01336193,0.12663996,-0.01635437
1756066390118,0.50980022,-0.06184417,-0.10050159,0.19733762,-0.21311206,-0.09857198,0.99185082,0.01446702,0.12544653,-0.01690638
1756066390130,-0.06013800,0.17124837,0.02956796,0.15763248,-0.25554814,-0.07763943,0.99200859,0.01534189,0.12402824,-0.01733727
1756066390141,0.27990577,-0.31372725,-0.01995697,0.18666117,-0.21963428,-0.13043982,0.99213402,0.01640585,0.12277632,-0.01808078
1756066390152,-0.01468727,-0.02378309,0.26731348,0.17077490,-0.24834307,-0.11724182,0.99227416,0.01734512,0.12141044,-0.01872561
1756066390163,-0.11354726,-0.25985979,-0.85342085,0.18766396,-0.24309834,-0.11360830,0.99240390,0.01835850,0.12009771,-0.01933910
1756066390174,0.06746870,-0.12260848,-0.39574436,0.19041379,-0.25445761,-0.10387233,0.99254474,0.01943434,0.11866002,-0.01992597
1756066390185,0.25720228,-0.06955198,0.09895986,0.16903657,-0.23676081,-0.07873949,0.99267556,0.02038940,0.11732232,-0.02037085
1756066390196,0.28520085,0.32035177,1.18975054,0.18796235,-0.26105470,-0.10464639,0.99280925,0.02141379,0.11589957,-0.02094118
1756066390207,0.42453900,-0.15794694,-0.10994994,0.18054358,-0.27799588,-0.06858316,0.99295793,0.02241581,0.11435670,-0.02132181
1756066390219,-0.28106727,-0.00024188,-0.00532141,0.19784956,-0.27221335,-0.10629637,0.99309253,0.02351387,0.11284591,-0.02191176
1756066390230,0.25824310,-0.19096621,0.03991701,0.20427746,-0.26042478,-0.07574439,0.99322109,0.02466804,0.11137451,-0.02233971
1756066390241,0.20155737,0.12764759,-0.03325128,0.17923932,-0.25551866,-0.04536710,0.99335159,0.02568970,0.10991806,-0.02259831
1756066390252,-0.05195597,0.00018724,0.20384395,0.21199092,-0.26661251,-0.07940854,0.99346866,0.02682386,0.10849168,-0.02302314
1756066390263,-0.47101466,-0.32008552,-0.80070783,0.19278407,-0.24076964,-0.06916231,0.99357619,0.02790345,0.10714337,-0.02341045
1756066390274,-0.12742232,0.05979893,-0.27164466,0.18132255,-0.24235116,-0.05448873,0.99368438,0.02890979,0.10579832,-0.02371286
1756066390285,0.25397645,0.20124610,-0.25228327,0.19327635,-0.24553647,-0.02991204,0.99379276,0.02998247,0.10443559,-0.02387887
1756066390297,0.26048708,0.17053754,0.13353273,0.20627601,-0.23769137,-0.04094380,0.99389499,0.03118918,0.10304510,-0.02411840
1756066390308,0.58327229,0.34781332,0.62124127,0.24137536,-0.23936243,-0.02782364,0.99398035,0.03245641,0.10178845,-0.02426447
1756066390319,-0.21298821,0.03170405,-0.40670903,0.23949574,-0.24001551,-0.01027586,0.99407176,0.03380956,0.10043236,-0.02432253
1756066390330,0.20907398,-0.04278430,-0.05752308,0.26147000,-0.25089956,0.01641614,0.99416247,0.03524764,0.09905241,-0.02423224
1756066390341,0.26422138,-0.28484719,-0.18674372,0.21976586,-0.23539792,0.03664739,0.99425671,0.03652228,0.09768710,-0.02401968
1756066390352,0.11468680,0.58695642,0.25999984,0.22634692,-0.27225068,-0.04609241,0.99434754,0.03773324,0.09623056,-0.02426628
1756066390363,0.19206120,-0.42450182,-1.02517043,0.20756133,-0.27895191,0.01177755,0.99445243,0.03887483,0.09469633,-0.02420150
1756066390374,-0.20526745,-0.17563254,-0.85230666,0.20315906,-0.29367903,-0.00176748,0.99456327,0.04002268,0.09303704,-0.02421149
1756066390385,0.18648193,0.06860223,0.02951025,0.16783182,-0.29325612,0.02096862,0.99467806,0.04094575,0.09142413,-0.02409616
1756066390397,0.47828771,-0.62589110,0.67139459,0.20625882,-0.26294667,0.04120662,0.99476966,0.04210080,0.08995163,-0.02386540
1756066390408,0.06343447,0.26134052,0.51602873,0.15012894,-0.26896252,0.01855276,0.99487126,0.04294152,0.08844544,-0.02376151
1756066390419,0.25309103,-0.44826194,-0.09007110,0.14941706,-0.26758071,0.05627639,0.99497253,0.04376332,0.08697375,-0.02345199
1756066390430,-0.04441619,0.08769114,-0.21172620,0.15440763,-0.25773230,0.03524626,0.99506307,0.04462028,0.08554333,-0.02325637
1756066390441,0.08458572,0.03142507,-0.21250345,0.18947211,-0.25789151,0.04936251,0.99514445,0.04568132,0.08409914,-0.02297994
1756066390452,0.12177171,-0.10868099,0.12651528,0.16308844,-0.24779947,0.08410612,0.99522694,0.04657015,0.08274863,-0.02252156
1756066390463,-0.80084630,-0.20712598,-0.71066748,0.16975818,-0.24153982,0.08102340,0.99530371,0.04752080,0.08139601,-0.02206783
1756066390474,0.19217767,-0.03769693,-0.34386597,0.16840654,-0.20939367,0.05910395,0.99536022,0.04845546,0.08023387,-0.02173981
1756066390485,-0.01773948,-0.14842900,-0.31279314,0.15573372,-0.21864536,0.07012562,0.99542383,0.04932756,0.07900946,-0.02134710
1756066390497,0.41037454,-0.24168228,0.61316315,0.14034374,-0.22952423,0.07264313,0.99549254,0.05009244,0.07775855,-0.02095120
1756066390507,0.17807277,-0.10796083,0.14427316,0.09259291,-0.19944557,0.05347764,0.99555801,0.05060170,0.07666160,-0.02065707
1756066390519,-0.07749070,-0.16243285,-0.30199733,0.10308674,-0.18022594,0.01676721,0.99560765,0.05117898,0.07565234,-0.02056317
1756066390530,0.03924530,0.07203841,-0.16171366,0.04627420,-0.16160853,0.05423075,0.99566779,0.05143349,0.07476349,-0.02026490
1756066390541,-0.35787866,-0.36146023,0.01453208,0.06545380,-0.09488295,0.03738664,0.99569301,0.05180331,0.07422740,-0.02005367
1756066390552,-0.18993548,-0.16578618,-0.44218900,0.07904676,-0.08847287,0.00385298,0.99570712,0.05224597,0.07373195,-0.02003209
1756066390563,-0.48933097,0.24880659,-1.10255907,-0.00024458,-0.05464785,-0.01782908,0.99572724,0.05224464,0.07343412,-0.02012926
1756066390574,-0.32062711,-0.04946289,-0.80102286,0.04138588,-0.04981660,-0.04596373,0.99573035,0.05247640,0.07315515,-0.02038666
1756066390585,0.03249403,0.15256097,0.06810200,0.00862235,-0.03790179,-0.03142621,0.99573959,0.05252382,0.07294669,-0.02055950
1756066390596,0.41539333,-0.14121970,0.99721709,-0.00248282,-0.02955124,-0.00655216,0.99575157,0.05251004,0.07278268,-0.02059587
1756066390607,-0.03991059,0.13400281,-0.04740894,0.03158226,-0.01028737,0.00863434,0.99574747,0.05268532,0.07272559,-0.02054795
1756066390619,-0.13800636,0.21469269,-0.23509485,0.03740162,0.03237862,0.02511814,0.99572581,0.05289664,0.07290853,-0.02040603
1756066390630,-0.06178224,0.17320296,-0.27397353,0.04773033,0.02400422,0.06746461,0.99570910,0.05316870,0.07304535,-0.02002148
1756066390641,-0.00092934,0.05635858,-0.13866223,0.04135177,0.01573844,0.05010359,0.99569596,0.05339821,0.07313270,-0.01974341
1756066390652,0.11652495,-0.05613555,-0.18671338,0.05664247,-0.00345150,0.00837108,0.99568177,0.05370408,0.07311406,-0.01969820
1756066390663,-0.32744149,0.03139767,-0.92010696,0.00545703,-0.02775689,-0.02883198,0.99568826,0.05373436,0.07296001,-0.01985822
1756066390674,0.03475496,-0.16317527,-0.27682856,-0.00573323,0.00096321,-0.02497873,0.99568678,0.05370197,0.07296545,-0.01999935
1756066390686,-0.06667442,-0.14435962,-0.10939508,-0.04870232,-0.03759634,-0.09177082,0.99570641,0.05342924,0.07275491,-0.02051327
1756066390697,0.38298265,-0.19386715,0.66974447,-0.02871436,0.01548077,-0.02295896,0.99570603,0.05326844,0.07284160,-0.02064184
1756066390708,0.09851748,-0.04565067,0.04911988,-0.02071215,-0.01082799,0.00875220,0.99571736,0.05315555,0.07278259,-0.02059414
1756066390719,0.11146688,0.10479476,-0.15838588,-0.01566531,-0.02455259,-0.02907080,0.99572880,0.05306705,0.07264387,-0.02075839
1756066390730,0.15966137,-0.07243187,-0.18369199,-0.00188789,-0.07128562,-0.03845583,0.99575345,0.05305666,0.07225180,-0.02096989
1756066390741,0.08048010,-0.04045003,0.13090692,-0.03347675,-0.05997737,-0.01728613,0.99578655,0.05286417,0.07190693,-0.02106929
1756066390752,0.02618030,-0.03059481,0.04615861,-0.03806085,-0.07665146,-0.00346931,0.99582610,0.05266245,0.07150068,-0.02108768
1756066390763,-0.21621333,0.08198830,-0.42951740,0.00913457,-0.05575081,0.02057905,0.99584820,0.05271360,0.07118847,-0.02097243
1756066390774,-0.40571358,0.13902766,-1.25210657,0.03834225,-0.08128963,0.01276818,0.99587035,0.05292448,0.07074138,-0.02090221
1756066390786,-0.02047519,0.00359642,-0.05014829,0.02313242,-0.06698267,0.01401170,0.99589187,0.05305518,0.07036293,-0.02082304
1756066390797,0.23502967,-0.09405855,0.67941546,0.00715440,-0.06743782,-0.00707602,0.99591572,0.05309560,0.06998190,-0.02086302
1756066390808,0.36628107,-0.03514682,0.96954651,0.02287239,-0.09845273,-0.03914079,0.99594238,0.05322140,0.06944041,-0.02107830
1756066390819,0.08152536,0.03349683,0.14211521,0.02799957,-0.09669143,0.01089798,0.99597234,0.05337540,0.06890861,-0.02101836
1756066390830,-0.07321953,0.06134497,-0.00077552,0.05976642,-0.09833285,0.01524317,0.99599447,0.05371607,0.06834811,-0.02093147
1756066390841,0.07349185,0.10151692,0.00763831,0.05736661,-0.08725194,0.02249182,0.99601249,0.05402585,0.06787695,-0.02081002
1756066390853,-0.08699490,-0.02766986,0.12582368,0.05160093,-0.07628080,0.03420264,0.99603023,0.05432255,0.06743834,-0.02061335
1756066390863,-0.13706722,0.42728749,-0.96258773,0.04279324,-0.10534378,0.01635912,0.99605778,0.05455364,0.06686948,-0.02052501
1756066390875,-0.10384815,0.14526378,-0.14686961,0.03635694,-0.06588500,-0.01473936,0.99606950,0.05475542,0.06650382,-0.02060682
1756066390886,-0.02357844,-0.16184705,0.11271032,0.04519353,-0.07346088,-0.00215019,0.99608269,0.05500850,0.06609244,-0.02061886
1756066390897,0.17566376,-0.28127540,0.95626259,0.01785596,-0.06415062,0.03166050,0.99610478,0.05510939,0.06572999,-0.02043997
1756066390908,0.10739996,-0.26417330,0.36656006,0.03918263,-0.07400129,0.00969650,0.99612070,0.05532489,0.06532298,-0.02038664
1756066390919,-0.06770231,-0.14194462,0.02512757,-0.00901139,-0.04183444,-0.00266676,0.99613853,0.05527443,0.06508871,-0.02040158
1756066390930,-0.04482201,-0.21768449,0.08495644,-0.00865501,-0.03817162,-0.01201285,0.99615338,0.05522726,0.06488067,-0.02046705
1756066390941,-0.08939882,0.05542434,0.16439788,0.00649356,-0.02677494,-0.02754941,0.99615789,0.05526330,0.06473207,-0.02061995
1756066390953,-0.09808810,0.09343331,0.11653180,0.01186938,-0.02322355,0.01013231,0.99616413,0.05533333,0.06459505,-0.02056017
1756066390963,-0.18743655,-0.10122412,-0.88493620,0.04536296,-0.00218093,0.00248591,0.99615189,0.05557148,0.06458360,-0.02054712
1756066390975,-0.16919370,-0.01899365,-0.13662550,0.02848639,-0.01292320,0.00592204,0.99614825,0.05573528,0.06450929,-0.02051306
1756066390986,-0.15121786,-0.03084746,0.10927918,0.02556454,0.00753955,-0.02350463,0.99613526,0.05587333,0.06455001,-0.02063999
1756066390997,0.25447703,0.15962890,1.01645623,0.00744233,0.03119501,0.01692389,0.99612355,0.05591501,0.06472470,-0.02054521
1756066391008,-0.16565307,-0.00794402,0.30836993,-0.01118868,0.00635303,-0.00474041,0.99612418,0.05585403,0.06475932,-0.02057105
1756066391019,0.02294304,-0.14052012,0.06719219,-0.01760743,0.02686530,-0.00377838,0.99611948,0.05575543,0.06490977,-0.02059221
1756066391030,-0.08125314,-0.15656673,0.03468701,-0.02523658,0.02872419,-0.03116923,0.99611326,0.05561410,0.06507062,-0.02076676
1756066391041,-0.09692571,0.04168151,0.08713163,-0.01922401,0.05145176,-0.02663979,0.99609742,0.05550741,0.06535618,-0.02091461
1756066391053,-0.15021027,0.06957049,0.05975934,0.01133402,0.03631176,0.00830806,0.99608121,0.05557201,0.06556316,-0.02086725
1756066391064,-0.19875344,0.39925616,-0.97131041,0.01747539,0.05327044,0.02953514,0.99606010,0.05566725,0.06585348,-0.02070628
1756066391075,-0.17641589,0.18765463,-0.20986072,0.01602691,0.03580161,0.01512872,0.99604327,0.05575861,0.06605755,-0.02062005
1756066391086,0.03550929,-0.05478878,0.02057110,-0.02702102,0.03980304,0.01365704,0.99603863,0.05561134,0.06627448,-0.02054562
1756066391097,0.21961322,-0.32119600,1.13615120,-0.01831129,0.02776520,0.00262406,0.99603429,0.05550880,0.06642996,-0.02053093
1756066391108,-0.11331568,-0.02327977,0.14859378,-0.00328349,0.03894048,0.00246616,0.99602127,0.05549074,0.06664414,-0.02051736
1756066391119,-0.07263287,0.02917541,-0.05711721,0.02416506,0.04815855,0.03547193,0.99599991,0.05562486,0.06691142,-0.02032049
1756066391131,-0.12007629,0.18332232,-0.09025159,0.00881278,0.03325019,0.02230030,0.99598625,0.05567773,0.06711092,-0.02018669
1756066391142,-0.06673423,-0.05034633,0.04882580,0.01126192,0.05150915,-0.00523863,0.99596413,0.05573686,0.06738134,-0.02021419
1756066391153,-0.05737621,-0.00428093,-0.07917965,-0.02039104,0.05464644,0.01282081,0.99595145,0.05562471,0.06768190,-0.02014368
1756066391164,-0.32594922,-0.28848186,-0.75422908,0.03263744,0.04703440,0.00042660,0.99592459,0.05579932,0.06793353,-0.02014140
1756066391175,-0.08074245,0.05777912,-0.13767117,0.04457495,0.05047033,0.01339522,0.99589277,0.05604894,0.06821616,-0.02006638
1756066391186,-0.04989228,0.14492520,-0.06557271,0.03719934,0.04267730,0.01159832,0.99586593,0.05625725,0.06845516,-0.02000143
1756066391197,0.24756075,0.32976422,0.59942012,0.04543823,0.03051533,-0.00670422,0.99583901,0.05651171,0.06862604,-0.02003898
1756066391208,0.00144266,-0.02477566,0.02224886,0.03481386,0.03628871,-0.00157466,0.99581395,0.05670492,0.06882744,-0.02004772
1756066391220,-0.01153690,-0.04634315,-0.04763013,0.02827146,0.03850297,0.00964883,0.99579026,0.05686890,0.06905076,-0.01999175
1756066391230,-0.05631311,-0.01102116,-0.08790864,0.01406709,0.04798908,-0.01313209,0.99576693,0.05694345,0.06930510,-0.02006135
1756066391242,0.05567401,-0.13987188,-0.13936074,0.00606943,0.04685974,-0.01000870,0.99574575,0.05697714,0.06956518,-0.02011690
1756066391253,0.08415442,-0.09959789,-0.00373144,0.00114062,0.03330749,-0.00988497,0.99573083,0.05698370,0.06975669,-0.02017374
1756066391264,-0.23922083,0.26523841,-0.95520597,-0.00155785,0.03288911,0.00210327,0.99571897,0.05697521,0.06993594,-0.02016228
1756066391275,-0.02837038,0.03057619,-0.09709487,0.01496798,0.02803531,0.02062646,0.99570547,0.05705903,0.07009294,-0.02004677
1756066391286,0.02637163,0.07555117,-0.08386655,0.01026324,0.03004373,0.02452593,0.99569307,0.05711650,0.07026118,-0.01990942
1756066391297,0.33139392,-0.23121791,1.06083761,-0.01875296,0.02505183,0.00758604,0.99569005,0.05701242,0.07040022,-0.01986732
1756066391308,0.10255811,-0.16133552,0.08199811,-0.03557541,0.02561805,-0.00360585,0.99569088,0.05681498,0.07054240,-0.01988733
1756066391320,-0.00575548,-0.12056552,0.07191038,-0.02077754,0.02981514,0.00965330,0.99568674,0.05669863,0.07070936,-0.01983327
1756066391331,0.16399838,0.06626064,-0.11948339,0.01283881,0.00998417,0.05413172,0.99568469,0.05676988,0.07076478,-0.01953284
1756066391342,-0.06409882,0.22664375,-0.02491388,0.02490757,0.01660366,-0.03606320,0.99566629,0.05690812,0.07085693,-0.01973299
1756066391353,0.11192280,-0.11942721,0.03867433,0.01115446,0.01343208,0.04252961,0.99566202,0.05697114,0.07093282,-0.01949270
1756066391364,-0.47210787,-0.40328220,-0.29913691,0.00002009,0.00835046,0.00115782,0.99565889,0.05697125,0.07097833,-0.01948639
1756066391375,0.03207049,-0.07235610,0.03136038,-0.00708298,0.00079713,-0.00222436,0.99566059,0.05693194,0.07098275,-0.01949874
1756066391386,-0.00182091,-0.16611901,-0.00506112,0.00081133,0.02740669,0.00498188,0.99564982,0.05693652,0.07113760,-0.01947059
1756066391397,0.40011356,0.50952751,0.35601493,-0.00052913,0.01916001,0.00268937,0.99564274,0.05693361,0.07124298,-0.01945580
1756066391409,-0.05421628,0.04947327,-0.13104607,0.03642306,0.02626558,0.00780060,0.99562138,0.05713758,0.07139007,-0.01941211
1756066391420,-0.00070811,0.06440310,0.00042663,-0.01380963,0.03060033,0.01239370,0.99561498,0.05706163,0.07155837,-0.01934395
1756066391431,0.02587919,-0.01906274,0.08772402,-0.01445740,0.02568810,0.00309441,0.99560960,0.05698067,0.07170222,-0.01932662
1756066391442,-0.10824018,-0.05662422,-0.03321563,-0.00717191,0.03750542,-0.01739245,0.99559499,0.05694086,0.07191038,-0.01942315
1756066391453,-0.02805835,-0.01112659,-0.13182587,-0.01526939,0.04979842,0.02089543,0.99558208,0.05685612,0.07218676,-0.01930718
1756066391464,0.12408564,0.24913880,-1.19828508,-0.02821936,0.03188523,0.00246019,0.99557843,0.05669950,0.07236372,-0.01929352
1756066391475,-0.05780988,-0.07208094,-0.14851575,-0.01025315,0.01521722,-0.02268281,0.99557308,0.05664260,0.07244818,-0.01941941
1756066391486,0.01023958,-0.02375181,0.12701877,-0.02367167,0.04334228,-0.02575203,0.99556010,0.05651004,0.07269089,-0.01956363
1756066391498,-0.06451347,-0.09624973,0.93370036,-0.01795941,0.04568999,0.02665501,0.99555010,0.05641036,0.07294447,-0.01941569
1756066391509,-0.00290259,0.04523200,0.12989081,0.02224644,0.01865743,0.00261976,0.99553579,0.05653383,0.07304802,-0.01940115
1756066391520,-0.01015906,0.03749176,-0.03434729,-0.00079803,0.02263957,-0.00350894,0.99552643,0.05652940,0.07317367,-0.01942063
1756066391531,0.01523859,-0.03966870,-0.05393976,-0.00672734,0.02391478,-0.01937364,0.99551669,0.05649206,0.07330640,-0.01952815
1756066391542,0.04942568,-0.09505646,0.07401437,-0.02307100,0.01752597,-0.01801439,0.99551479,0.05636286,0.07340454,-0.01962903
1756066391553,-0.01383049,-0.10630081,0.13043505,-0.01925442,0.03079477,0.00860163,0.99550916,0.05625600,0.07357546,-0.01958129
1756066391564,-0.22253175,-0.35726021,-0.51351620,-0.01598497,0.02079928,0.01147103,0.99550688,0.05616729,0.07369089,-0.01951763
1756066391575,0.04353882,-0.08320752,-0.13690540,-0.01594179,0.03145592,-0.00122088,0.99549880,0.05607881,0.07386547,-0.01952440
1756066391587,0.03628235,-0.00483765,0.06143811,0.00463082,0.01799556,-0.02040118,0.99548771,0.05610451,0.07396535,-0.01963763
1756066391598,0.20124610,0.37830397,0.64437454,-0.02647656,0.01438367,0.00540283,0.99549063,0.05595757,0.07404518,-0.01960764
1756066391609,0.08137514,-0.01854854,0.06909578,-0.03946522,0.00498201,0.00624500,0.99550165,0.05573656,0.07407308,-0.01957267
1756066391620,-0.00475165,-0.06581029,-0.00641472,-0.03060359,0.00859522,-0.01793240,0.99550566,0.05556518,0.07412121,-0.01967309
1756066391631,-0.00475165,0.01734351,0.08909336,-0.02518496,0.02149759,-0.00129421,0.99550441,0.05542414,0.07424160,-0.01968034
1756066391642,0.01795075,0.17851311,0.03878616,-0.00205545,-0.00379917,0.00869942,0.99550752,0.05541294,0.07422089,-0.01963293
1756066391653,0.07241437,0.04553985,-0.07738786,-0.01487780,0.00199793,0.00331337,0.99551176,0.05532814,0.07423228,-0.01961404
1756066391664,0.04422628,0.18418703,-1.23287426,-0.01016652,0.00049022,0.00177636,0.99551488,0.05527171,0.07423500,-0.01960418
1756066391675,0.05666728,0.00410192,-0.12411419,-0.01072220,-0.00389995,-0.00277687,0.99551937,0.05521381,0.07421394,-0.01961918
1756066391687,-0.08155232,0.10065570,0.05876202,-0.03469247,-0.02667357,-0.03769884,0.99553707,0.05501954,0.07406457,-0.01983029
1756066391698,0.07915599,-0.37694554,1.21113508,-0.00101391,0.00184538,0.01144281,0.99553788,0.05501391,0.07407481,-0.01976678
1756066391709,-0.01251959,0.11632681,0.13307331,-0.02374741,-0.01602876,0.00953597,0.99555322,0.05487855,0.07398345,-0.01971243
1756066391720,0.02999961,0.01357838,0.03728057,-0.01229075,-0.01769960,-0.00113774,0.99556395,0.05481156,0.07388698,-0.01971863
1756066391731,-0.04320817,0.02248396,-0.03975969,-0.00654806,-0.01347317,-0.00440715,0.99557101,0.05477522,0.07381221,-0.01974309
1756066391742,0.01136847,0.06240564,-0.04547388,-0.00697247,-0.01127585,0.00558408,0.99557839,0.05473653,0.07374963,-0.01971210
1756066391753,-0.00846323,0.02442036,0.04153816,0.00327832,-0.01518195,0.01624851,0.99558554,0.05475505,0.07366385,-0.01962029
1756066391765,-0.29360726,-0.12343781,-0.33194726,0.01678997,-0.03368826,0.01700106,0.99559599,0.05484739,0.07347856,-0.01952679
1756066391776,0.13872612,0.00143810,-0.01229642,0.00659833,-0.01988943,0.00160751,0.99560228,0.05488401,0.07336818,-0.01951787
1756066391787,-0.04743084,-0.00715315,-0.00602945,-0.01548795,-0.03411974,-0.00704278,0.99562035,0.05479728,0.07317710,-0.01955731
1756066391798,0.24354096,0.04640253,0.35511998,0.01015806,-0.03218369,0.00419917,0.99563082,0.05485366,0.07299849,-0.01953400
1756066391809,0.01545997,0.00271614,0.00870065,0.00654773,-0.04006259,0.00884182,0.99564619,0.05489033,0.07277413,-0.01948449
1756066391820,0.07438705,-0.07897879,-0.00630265,-0.01545951,-0.03979861,0.01431807,0.99566839,0.05480530,0.07255524,-0.01940574
1756066391831,0.03138313,-0.14434438,0.02576707,-0.02919525,-0.03931138,-0.00170074,0.99569298,0.05464326,0.07233706,-0.01941518
1756066391843,-0.04524306,0.01639448,0.04250959,-0.03854880,-0.03120228,-0.00184102,0.99571750,0.05442546,0.07216077,-0.01942558
1756066391854,-0.03371261,-0.19408455,-0.11400429,-0.02641139,-0.03889261,-0.01107479,0.99573972,0.05428020,0.07194686,-0.01948649
1756066391865,0.08369789,0.19196601,-1.14912683,-0.05637758,-0.01810525,-0.01764280,0.99576246,0.05396167,0.07184457,-0.01958617
1756066391876,-0.02544807,-0.00916566,-0.12590623,-0.03011201,-0.02206198,-0.02401034,0.99577743,0.05379756,0.07172433,-0.01971703
1756066391887,-0.00976921,0.13296543,-0.04822485,-0.04882731,-0.01941238,-0.00224921,0.99579974,0.05352412,0.07161562,-0.01972962
1756066391898,-0.10102475,-0.10309587,1.07996791,-0.02681777,-0.01545788,0.00053788,0.99581395,0.05337529,0.07152983,-0.01972664
1756066391909,-0.00820460,0.08358517,-0.00516835,-0.00770260,-0.00652638,0.00038577,0.99581897,0.05333177,0.07149296,-0.01972446
1756066391920,-0.07699240,-0.05106485,-0.02696421,-0.02082509,-0.02022415,-0.01986241,0.99583080,0.05321827,0.07138273,-0.01983271
1756066391931,-0.01424665,-0.07921092,0.01964573,-0.00670626,0.00577825,-0.04952427,0.99582498,0.05318105,0.07141480,-0.02010757
1756066391943,-0.06506635,-0.00507953,0.07498352,-0.02700736,0.01208694,-0.01461816,0.99582652,0.05303116,0.07148189,-0.02018870
1756066391954,-0.07923262,0.02872391,0.01534439,-0.01000755,0.00130319,0.00663985,0.99582973,0.05297512,0.07148918,-0.02015152
1756066391965,-0.01317827,-0.31077561,-0.30235508,-0.01866724,0.00898521,0.00979309,0.99583275,0.05287151,0.07153905,-0.02009716
1756066391976,-0.01185223,0.00532141,-0.05224658,-0.01663159,0.00217205,0.00554733,0.99583740,0.05277921,0.07155111,-0.02006638
1756066391987,0.02884591,-0.03392718,0.05517046,-0.02761453,-0.00815770,0.01414161,0.99585046,0.05262457,0.07150542,-0.01998718
1756066391998,0.08804714,0.36286048,0.45943172,-0.01024943,-0.00597746,0.00656864,0.99585647,0.05256871,0.07147285,-0.01995138
1756066392009,-0.03100671,0.04930975,-0.05681174,-0.01471954,-0.01431717,0.00617819,0.99586707,0.05248775,0.07139410,-0.01991740
1756066392020,0.04835016,-0.00528297,0.02800447,-0.01951276,-0.00901284,0.02949973,0.99587973,0.05237848,0.07134363,-0.01975221
1756066392031,-0.03468701,-0.03848833,0.04727888,-0.01194184,-0.01587189,0.00622242,0.99589030,0.05231160,0.07125475,-0.01971736
1756066392042,-0.01164153,0.00427648,0.07436326,-0.02483536,-0.00310349,-0.00317262,0.99589848,0.05217253,0.07123737,-0.01973513
1756066392054,-0.02785966,-0.05027913,-0.06211841,-0.00628471,-0.00486734,0.01043947,0.99590339,0.05213765,0.07121035,-0.01967719
1756066392065,0.01905795,0.28622459,-1.24917771,-0.01653686,-0.00506003,0.00503617,0.99591082,0.05204504,0.07118202,-0.01964899
1756066392076,-0.00060471,-0.03289168,0.19082788,-0.01285165,-0.00302735,0.00508157,0.99591630,0.05197371,0.07116522,-0.01962078
1756066392087,-0.00314447,-0.03192847,-0.14343622,-0.00986980,0.00753187,0.00611296,0.99591683,0.05191894,0.07120702,-0.01958686
1756066392098,-0.06845270,-0.28276045,1.12547850,-0.02600791,0.00797504,-0.01263134,0.99591980,0.05177459,0.07125128,-0.01965696
1756066392109,-0.00580518,-0.03628235,0.07836988,-0.03098751,0.02148387,-0.02690715,0.99591723,0.05160261,0.07137051,-0.01980629
1756066392120,0.02908136,-0.01062485,0.03170974,-0.06117509,-0.00774929,0.00104693,0.99593815,0.05126003,0.07132712,-0.01980043
1756066392131,-0.09399431,0.05311288,-0.05604649,0.02000995,0.06612378,-0.05597467,0.99590020,0.05137009,0.07169080,-0.02010829
1756066392143,0.01595155,0.05021619,-0.06674274,-0.05741735,0.02150722,0.02242806,0.99591067,0.05104568,0.07181231,-0.01998157
1756066392154,0.03755315,0.11836141,0.09713382,-0.00975249,0.03902117,-0.03636844,0.99589389,0.05099204,0.07202693,-0.02018160
1756066392165,-0.36621366,-0.31458487,-0.34435609,-0.01451937,0.01926899,0.00070250,0.99589032,0.05091073,0.07213484,-0.02017767
1756066392176,-0.03036919,0.06838791,0.02340644,-0.04826731,0.04862434,-0.02062456,0.99588207,0.05064285,0.07240470,-0.02029213
1756066392187,-0.07280658,-0.01402918,0.04716706,-0.00616105,0.05147858,-0.01495517,0.99586130,0.05060865,0.07269041,-0.02037513
1756066392198,0.28634948,0.21348235,0.24492002,-0.02334955,0.06704461,0.04574248,0.99584595,0.05048023,0.07305915,-0.02012355
1756066392209,-0.12029871,0.07928769,-0.02871722,-0.01845895,0.04146457,0.00023162,0.99583414,0.05037686,0.07329136,-0.02012225
1756066392220,0.00663963,-0.07803681,-0.05365770,0.00262617,0.05148283,0.00001596,0.99581352,0.05039065,0.07356164,-0.02012217
1756066392231,-0.02424298,0.12725510,-0.04293833,-0.03249450,0.02721929,-0.00541293,0.99581088,0.05021193,0.07371135,-0.02015194
1756066392242,0.02544652,0.04815170,0.02925724,0.02255760,0.06081313,-0.01423139,0.99577732,0.05033938,0.07405494,-0.02023235
1756066392253,-0.14239420,0.15742723,-0.04212387,0.04609114,0.04287136,0.02263399,0.99574943,0.05059288,0.07429073,-0.02010786
1756066392264,-0.24260568,0.61919867,-0.88692697,0.03394219,0.05491086,0.01082330,0.99571855,0.05077956,0.07459274,-0.02004833
1756066392275,-0.04026804,0.09096810,-0.08705015,0.05837093,0.06389979,0.02008087,0.99567721,0.05110644,0.07495058,-0.01993588
1756066392287,0.03898061,0.02147831,0.13810190,0.05352250,0.04768105,0.00362184,0.99563890,0.05143293,0.07524144,-0.01991379
1756066392299,0.19684018,-0.36776395,0.84284465,0.06791606,0.05293461,0.01908054,0.99559707,0.05183023,0.07555110,-0.01980217
1756066392310,-0.11118992,0.05838129,0.12462947,0.07407598,0.04208682,0.01164271,0.99556117,0.05221913,0.07577206,-0.01974104
1756066392321,0.04384185,-0.04224213,0.06487580,0.05255001,0.04742979,0.00656078,0.99552617,0.05251341,0.07603767,-0.01970430
1756066392332,0.07432699,-0.18325394,0.03821741,0.04077779,0.04740663,0.01421531,0.99549563,0.05273973,0.07630077,-0.01962541
1756066392342,0.02021862,-0.12759948,0.06556841,-0.00199895,0.02727172,-0.02630048,0.99548260,0.05272934,0.07644259,-0.01976217
1756066392354,0.07874909,-0.16397645,-0.01011650,-0.00354287,0.02556998,-0.03518311,0.99546846,0.05270914,0.07658834,-0.01996271
1756066392365,-0.14674619,-0.42486632,-0.38750186,-0.00265166,0.02442401,-0.03164806,0.99545527,0.05269442,0.07672389,-0.02013836
1756066392376,-0.04302709,0.00074112,-0.01628244,0.01101616,0.02108398,-0.01568081,0.99544137,0.05275501,0.07683985,-0.02022460
1756066392387,-0.04643222,0.08432443,0.15904190,-0.00926099,0.03394455,-0.00849546,0.99542845,0.05270315,0.07702994,-0.02027218
1756066392398,0.04949314,0.51757785,0.64223653,0.02218769,0.05752776,0.02692307,0.99540045,0.05282518,0.07734634,-0.02012410
1756066392409,-0.12752752,0.15289129,0.02826000,0.03375199,0.04559688,0.02164345,0.99537273,0.05301588,0.07760396,-0.02000182
1756066392420,-0.08515971,0.15920995,-0.00384871,0.04976929,0.07094271,0.00720094,0.99532800,0.05329210,0.07799770,-0.01996185
1756066392432,0.02166922,0.13470060,0.02568243,0.05131828,0.05755041,-0.00313223,0.99528692,0.05357949,0.07831998,-0.01997939
1756066392443,-0.00737698,0.05925964,0.12093033,0.05494875,0.04760516,-0.00722952,0.99524813,0.05388995,0.07858895,-0.02002024
1756066392454,-0.03124565,0.00975978,-0.01823128,0.05586382,0.06499853,0.00815166,0.99520204,0.05421116,0.07896269,-0.01997337
1756066392466,-0.19993842,0.30149093,-0.85289591,0.07561119,0.07573480,0.00642376,0.99514486,0.05464215,0.07939438,-0.01993675
1756066392476,-0.17856210,0.18461607,0.13022799,0.13041501,0.11226565,0.02245029,0.99506139,0.05533335,0.07998939,-0.01981776
1756066392487,-0.56252475,0.60516450,-0.02050523,0.14168051,0.11396070,-0.01538085,0.99496460,0.05611967,0.08062187,-0.01990313
1756066392498,0.43170172,-0.58735251,1.22262397,0.14901142,0.14101013,0.03127086,0.99486317,0.05690198,0.08136217,-0.01973896
1756066392509,-0.16812907,-0.04244804,-0.10821081,0.16475261,0.14761070,-0.02408700,0.99473934,0.05782460,0.08218879,-0.01987384
1756066392521,-0.03159844,0.22926691,0.10691203,0.11392742,0.16572401,0.00505529,0.99462549,0.05846259,0.08311685,-0.01984553
1756066392532,-0.06713632,-0.10851483,0.03524958,0.13645194,0.16274866,-0.01670043,0.99449627,0.05926083,0.08406893,-0.01994323
1756066392543,-0.10763188,0.11975582,0.16636064,0.16075018,0.19107957,0.00619965,0.99435577,0.06013692,0.08511031,-0.01990944
1756066392556,0.23124267,-0.04406238,-0.23169561,0.13726171,0.15797650,-0.00081646,0.99421730,0.06100167,0.08610556,-0.01991459
1756066392564,-1.61089794,0.33798225,0.45225643,0.20473918,0.23627966,0.00709578,0.99408164,0.06184110,0.08707431,-0.01988549
1756066392575,0.80814658,-0.66664541,-0.40754519,0.13985494,0.16267619,0.01708137,0.99395544,0.06261730,0.08797716,-0.01979069
1756066392586,0.12140902,0.08272845,0.22201197,0.11376191,0.15592542,-0.01651460,0.99383343,0.06326574,0.08886594,-0.01988482
1756066392597,0.28078221,0.09687375,0.29575467,0.11421250,0.16950549,0.00081534,0.99370953,0.06389391,0.08979822,-0.01988034
1756066392609,0.24429939,-0.06920988,0.15496845,0.10250781,0.16604389,0.03179675,0.99359153,0.06446795,0.09072806,-0.01970228
1756066392620,-0.01208332,0.09712872,-0.16177393,0.10500466,0.12767851,0.02034854,0.99349081,0.06505073,0.09143668,-0.01958934
1756066392631,0.24665531,-0.11024277,-0.04675488,0.09416734,0.10764296,0.02269232,0.99340219,0.06558277,0.09204486,-0.01946113
1756066392642,0.03238655,-0.30114779,0.02776295,0.10404593,0.09329865,-0.00036106,0.99331574,0.06616023,0.09256267,-0.01946314
1756066392653,0.02728558,-0.01586450,0.20398259,0.08965038,0.09339028,0.00882962,0.99323427,0.06666227,0.09308565,-0.01941369
1756066392664,-0.02849892,0.13307848,-1.12255432,0.07553234,0.10295703,-0.00745112,0.99315151,0.06708148,0.09365706,-0.01945504
1756066392676,0.10260772,0.13016299,-0.25237874,0.07497680,0.11556917,0.01296467,0.99306324,0.06750135,0.09430425,-0.01938244
1756066392687,-0.04680371,0.22427768,-0.03041053,0.12078111,0.11806851,0.01071804,0.99295519,0.06817772,0.09496544,-0.01932242
1756066392698,0.04468589,-0.04484862,1.13256302,0.14190377,0.10303747,0.03882261,0.99285106,0.06895819,0.09553214,-0.01910890
1756066392709,-0.01970401,-0.08989957,0.10886468,0.14215633,0.11669539,0.02824062,0.99273746,0.06974005,0.09617397,-0.01895357
1756066392720,-0.00030238,-0.07934385,0.07413863,0.13571083,0.09054561,0.00570573,0.99263513,0.07050003,0.09668102,-0.01892162
1756066392731,-0.00092363,0.01256131,-0.07031430,0.11625155,0.09112665,-0.02196925,0.99253825,0.07113941,0.09718222,-0.01904245
1756066392742,0.13906035,-0.09021331,0.04869971,0.12122650,0.08681184,-0.01829980,0.99244055,0.07181222,0.09766402,-0.01914402
1756066392753,0.02892083,0.01910076,0.00938985,0.11238898,0.07267194,-0.01087409,0.99235350,0.07244160,0.09807099,-0.01920491
1756066392765,-0.02620146,-0.18672488,-0.59386036,0.11599089,0.07060236,-0.04129368,0.99225648,0.07313175,0.09849107,-0.01945061
1756066392777,0.33596997,0.07167012,-0.01697578,0.09944101,0.06838371,-0.00908879,0.99217332,0.07370850,0.09888770,-0.01950332
1756066392788,-0.12430091,-0.15420090,0.17308533,0.09946889,0.06288099,-0.00974220,0.99209694,0.07425558,0.09923354,-0.01955691
1756066392799,0.12506332,0.29034284,0.65508781,0.09408918,0.04515626,0.00027233,0.99203207,0.07478248,0.09948642,-0.01955538
1756066392810,0.11494748,-0.17898548,-0.22416843,0.09239935,0.03030248,0.00509896,0.99197596,0.07530454,0.09965763,-0.01952657
1756066392821,0.20177556,-0.18363713,0.21157270,0.04679503,0.01160777,0.01736789,0.99195250,0.07555489,0.09971973,-0.01943365
1756066392832,0.13696286,-0.14788942,0.04399935,0.04741656,0.00753567,-0.02733970,0.99192499,0.07582042,0.09976193,-0.01958676
1756066392843,-0.08435646,-0.02783159,-0.09234722,0.02689258,-0.01761604,-0.01366260,0.99192190,0.07596968,0.09966416,-0.01966258
1756066392855,0.06203285,-0.01839202,-0.14740108,0.03274676,-0.00088377,-0.02710820,0.99190516,0.07615470,0.09965916,-0.01981574
1756066392865,0.36565123,0.04774543,-0.86731199,0.06942963,0.00304570,-0.03257682,0.99187207,0.07651920,0.09967515,-0.01998677
1756066392876,0.16069539,-0.06736134,-0.09921088,0.06850569,-0.00363917,0.02067776,0.99184745,0.07689256,0.09965532,-0.01987408
1756066392887,0.11293223,0.13227013,0.04609096,0.04058516,-0.01907419,0.02386628,0.99184320,0.07711984,0.09954851,-0.01974043
1756066392898,-0.43672719,-0.16535249,0.70574786,0.03400171,-0.04264658,-0.01393734,0.99185070,0.07730855,0.09931182,-0.01981778
1756066392909,0.26628266,-0.19059665,-0.16346090,0.02087141,-0.04208721,-0.02340625,0.99186252,0.07742543,0.09907613,-0.01994885
1756066392921,-0.00213824,-0.11784082,-0.03848833,0.01840437,-0.04238303,-0.01813055,0.99187611,0.07752849,0.09883878,-0.02005039
1756066392932,-0.07985783,-0.02860315,-0.10147115,0.00089391,-0.03654044,-0.00918717,0.99189555,0.07753363,0.09862868,-0.02010321
1756066392943,-0.02654688,-0.02544388,-0.04518002,0.03211909,-0.00893524,-0.00733990,0.99188579,0.07771029,0.09857953,-0.02014358
1756066392954,-0.09435041,0.00470413,-0.25675302,0.02455911,-0.01537330,-0.00404430,0.99188310,0.07784782,0.09849344,-0.02016623
1756066392966,-0.05012986,0.04323998,-0.80635429,0.04106746,0.00302562,-0.00870391,0.99186235,0.07807779,0.09851039,-0.02021497
1756066392977,0.01175523,0.05732162,-0.08446431,0.02721292,-0.04206548,0.02288865,0.99187644,0.07823155,0.09827272,-0.02008565
1756066392988,0.15008429,0.19364256,0.15163090,0.05196740,-0.04905291,0.00314521,0.99188082,0.07851217,0.09800783,-0.02006867
1756066392999,0.17232773,0.17614409,0.57941569,0.04997836,-0.07626093,0.03078589,0.99190399,0.07878955,0.09758458,-0.01989780
1756066393010,0.09718614,-0.02807110,-0.12111132,0.04249934,-0.07961190,0.04516672,0.99193386,0.07902755,0.09713875,-0.01964487
1756066393021,0.03492460,-0.12900718,-0.10786236,0.04559980,-0.09109716,0.01154185,0.99196459,0.07928291,0.09662861,-0.01958024
1756066393032,-0.00498923,-0.09550808,-0.08576721,0.01771376,-0.08196303,0.00040679,0.99200131,0.07938210,0.09616962,-0.01957796
1756066393043,0.18212139,-0.03144726,-0.01850330,0.02705051,-0.09828733,-0.00504594,0.99204110,0.07953088,0.09562904,-0.01960571
1756066393054,0.11551421,0.03471011,-0.01868651,0.03260086,-0.12484811,-0.02455156,0.99209043,0.07971182,0.09493613,-0.01974197
1756066393066,-0.07961931,0.35117303,-0.63186870,0.02583697,-0.13109533,0.01359501,0.99214922,0.07985392,0.09421511,-0.01966720
1756066393077,0.16208281,0.08943032,0.05115069,0.04356069,-0.14764327,0.03280716,0.99221245,0.08010221,0.09337354,-0.01948020
1756066393088,0.26815724,0.08684038,-0.10356443,0.07595354,-0.19819272,0.01191395,0.99227940,0.08050477,0.09232312,-0.01941706
1756066393099,0.24251099,-0.30475604,0.43050893,0.05433929,-0.17008897,-0.00536521,0.99234391,0.08081722,0.09134511,-0.01944791
1756066393112,-0.13253948,-0.04957774,-0.04339792,0.04167299,-0.17356500,-0.01219038,0.99242224,0.08108393,0.09023429,-0.01952592
1756066393121,0.81254637,0.07068102,0.12612266,0.05266290,-0.20720541,-0.03827939,0.99248582,0.08132881,0.08927079,-0.01970392
1756066393132,-0.35110224,-0.01917963,0.03982912,0.04188504,-0.18932393,-0.01648082,0.99255823,0.08155918,0.08822950,-0.01979457
1756066393143,0.28174156,0.15880563,0.05075876,0.05404387,-0.18391474,-0.00034011,0.99262546,0.08186723,0.08718119,-0.01979651
1756066393154,-0.02310590,-0.08083655,-0.16153448,0.05568867,-0.21258149,-0.01055950,0.99270031,0.08217073,0.08602262,-0.01985406
1756066393166,0.23508562,-0.20688990,-0.61986300,0.05152132,-0.19576481,-0.03084842,0.99276612,0.08245410,0.08494591,-0.02002372
1756066393177,-0.04834882,-0.02119326,-0.11907920,0.03763895,-0.20874518,-0.02985308,0.99284592,0.08266864,0.08375607,-0.02019388
1756066393187,0.42718833,-0.01846853,0.20514387,0.03077758,-0.22075112,-0.03233464,0.99292381,0.08282561,0.08263024,-0.02035879
1756066393198,-0.25219716,0.21465625,0.60553756,0.05017576,-0.20433479,-0.02414463,0.99299332,0.08311161,0.08146553,-0.02049642
1756066393210,0.18939387,0.16311781,-0.12013277,0.05427215,-0.24815029,-0.03029895,0.99307660,0.08341282,0.08008829,-0.02066457
1756066393221,0.08979016,-0.17324621,0.01241852,0.05838265,-0.23680670,0.01501327,0.99315902,0.08374852,0.07872666,-0.02057825
1756066393232,0.37370163,0.16984004,0.16951878,0.06756860,-0.26908666,0.03244323,0.99324750,0.08412014,0.07724668,-0.02039981
1756066393243,0.06407810,-0.22013511,-0.16616937,0.08183803,-0.29579201,0.06106415,0.99334298,0.08457844,0.07559024,-0.02005785
1756066393255,0.09964755,-0.02789289,0.01809652,0.02346378,-0.30584915,0.08394519,0.99347114,0.08471101,0.07386220,-0.01958356
1756066393266,0.31711040,-0.32946246,-0.46835179,0.07129792,-0.30614578,0.09647251,0.99357170,0.08510315,0.07217839,-0.01905296
1756066393277,-0.37030806,-0.19182172,0.18051051,0.03164596,-0.30192535,0.07237482,0.99368658,0.08528195,0.07047252,-0.01864404
1756066393288,0.01596209,0.42306076,0.36510105,-0.05717152,-0.27807349,0.01392969,0.99382345,0.08496464,0.06892921,-0.01856673
1756066393299,0.10285173,-0.54448510,-0.02121760,0.03133342,-0.28959256,0.04642952,0.99392441,0.08514011,0.06730749,-0.01830673
1756066393310,0.01697272,0.01025225,0.05222004,0.02240386,-0.28933942,0.10641177,0.99403094,0.08526333,0.06571612,-0.01772146
1756066393321,0.00369450,-0.11576109,0.12167229,-0.00416789,-0.27608845,0.12708076,0.99414434,0.08524041,0.06419764,-0.01702252
1756066393332,-0.32831815,0.11920929,-0.16206552,-0.01759876,-0.26780406,0.07238419,0.99425339,0.08514362,0.06272471,-0.01662441
1756066393343,-0.10311431,-0.32499318,-0.04220647,-0.01410910,-0.24691751,0.09327008,0.99435591,0.08506390,0.06132963,-0.01609743
1756066393355,-0.09085571,-0.02201343,-0.09973044,-0.03279702,-0.25356825,0.10040633,0.99446613,0.08488188,0.05992233,-0.01554018
1756066393366,-0.59153760,0.24449620,-0.51017866,-0.05433570,-0.21503167,0.06583108,0.99456774,0.08458303,0.05873965,-0.01517811
1756066393377,-0.05018399,-0.35863894,-0.22320902,-0.02836974,-0.18999706,0.07268844,0.99464891,0.08442558,0.05768517,-0.01477468
1756066393388,-0.14079212,0.20542735,0.18519861,-0.05423275,-0.17940410,0.05310986,0.99473677,0.08412187,0.05668051,-0.01447727
1756066393399,0.06222158,-0.19577786,0.54676002,-0.05409791,-0.14922583,0.02030068,0.99480993,0.08382434,0.05585976,-0.01436562
1756066393410,-0.24455859,-0.05099913,-0.12320545,-0.02361941,-0.11745900,0.01650014,0.99485955,0.08369089,0.05519612,-0.01427239
1756066393421,-0.03321708,-0.08881791,0.01183083,-0.05071891,-0.09427865,0.03586916,0.99491492,0.08340940,0.05467287,-0.01407332
1756066393432,-0.28203480,-0.00919153,0.12045740,-0.07620409,-0.06121878,0.03282010,0.99497145,0.08298646,0.05433311,-0.01389116
1756066393443,0.17157138,0.00375663,-0.13056794,-0.06975539,-0.04067972,-0.00524583,0.99501517,0.08260281,0.05410937,-0.01392002
1756066393454,-0.66923475,-0.08143889,-0.22953473,-0.09811727,0.00409198,-0.02277404,0.99505759,0.08205335,0.05413229,-0.01404755
1756066393465,-0.56561518,0.25138892,-0.59804764,-0.09767352,0.06509971,-0.01677920,0.99508089,0.08151615,0.05449033,-0.01413984
1756066393477,-0.26699498,0.05625517,-0.07619912,-0.06814626,0.08518981,0.01245136,0.99508683,0.08113453,0.05496740,-0.01407011
1756066393488,-0.25744967,0.03631608,-0.02783192,-0.07530255,0.10839590,0.00004569,0.99508741,0.08072037,0.05556357,-0.01406986
1756066393499,0.11719286,-0.26849822,0.35757430,-0.08582384,0.12907481,0.01749420,0.99508704,0.08023975,0.05628639,-0.01397189
